belt	belt	belt	belt	belt	belt	belt	belt	belt	belt	belt	belt	belt	belt	belt	belt	belt	belt	belt	belt	belt	belt	belt	belt	belt	belt	belt	belt	belt	belt	belt	belt	belt	belt	belt	belt	Annotation	Annotation	
Axis Angle A	Axis Angle X	Axis Angle Y	Axis Angle Z	Gyroscope X	Gyroscope X	Gyroscope Y	Gyroscope Y	Gyroscope Z	Gyroscope Z	Low Noise Accelerometer X	Low Noise Accelerometer X	Low Noise Accelerometer Y	Low Noise Accelerometer Y	Low Noise Accelerometer Z	Low Noise Accelerometer Z	Magnetometer X	Magnetometer X	Magnetometer Y	Magnetometer Y	Magnetometer Z	Magnetometer Z	Pressure	Pressure	Quaternion 0	Quaternion 1	Quaternion 2	Quaternion 3	SyncTimestamp	SystemTimestamp	Temperature	Temperature	Timestamp	Timestamp	VSenseBatt	VSenseBatt	Level	Pulse	
CAL	CAL	CAL	CAL	CAL	RAW	CAL	RAW	CAL	RAW	CAL	RAW	CAL	RAW	CAL	RAW	CAL	RAW	CAL	RAW	CAL	RAW	CAL	RAW	CAL	CAL	CAL	CAL	CAL	UNCAL	CAL	RAW	CAL	RAW	CAL	RAW	no format	no format	
local	local	local	local	deg/s	No Units	deg/s	No Units	deg/s	No Units	m/s^2	No Units	m/s^2	No Units	m/s^2	No Units	local flux	No Units	local flux	No Units	local flux	No Units	kPa	No Units	local	local	local	local	mSecs	mSecs	Degrees Celsius	No Units	mSecs	No Units	mV	No Units	no unit	no unit	
0.00314377990804831	0.9269174621119391	-0.05107305365383638	0.371773535199279	0.22638358778625953	-137.0	0.07126669847328244	-9.0	0.1868439885496183	84.0	0.16867469879518074	1234.0	9.795180722891567	2033.0	-0.07228915662650603	2053.0	0.4290909090909091	-472.0	-0.8009090909090909	-881.0	-0.15612244897959185	153.0	95.2542922502112	39935.0	0.9999987645812406	0.0014570116468965188	-8.028118689949096E-5	5.843868444975165E-4	1.5228159096761875E12	1.522815909685E12	26.896939618726208	25937.0	113.28125	3712.0	3847.6190476190473	2626.0	0.0	0.0	
0.006262057774146226	0.9282639373770888	-0.05521077971520944	0.3678013490568846	0.0	-119.0	-0.2748091603053435	-9.0	-0.3053435114503817	104.0	0.16867469879518074	1235.0	9.783132530120483	2033.0	-0.03614457831325302	2050.0	0.4254545454545455	-468.0	-0.8081818181818182	-889.0	-0.15918367346938778	156.0	95.2572682188344	39936.0	0.9999950983330586	0.0029064164539847645	-1.7286626372131387E-4	0.001151594767019878	1.522815909684E12	1.522815909688E12	26.896939618726208	25937.0	121.09375	3968.0	3854.945054945055	2631.0	0.0	0.0	
0.009382564098724169	0.9273334090735909	-0.05570989701373464	0.3700664207625262	-0.15267175572519084	-130.0	0.030534351145038167	1.0	0.21374045801526717	80.0	0.22891566265060243	1235.0	9.783132530120483	2028.0	0.04819277108433735	2043.0	0.4290909090909091	-472.0	-0.8127272727272727	-894.0	-0.15714285714285717	154.0	95.2572682188344	39936.0	0.9999889959565482	0.004350366618482679	-2.6134988119297457E-4	0.0017360795888018091	1.5228159096918125E12	1.522815909698E12	26.896939618726208	25937.0	128.90625	4224.0	3847.6190476190473	2626.0	0.0	0.0	
0.012502642519118907	0.9275978201740757	-0.05424781964095902	0.36962069486340204	-0.05597964376590331	-145.0	0.24936386768447852	-2.0	-0.010178117048346128	90.0	0.21686746987951808	1235.0	9.783132530120483	2029.0	0.1566265060240964	2034.0	0.4290909090909091	-472.0	-0.8018181818181818	-882.0	-0.15510204081632656	152.0	95.2572682188344	39936.0	0.9999804605548869	0.005798674205654564	-3.391183394609507E-4	0.0023106026583571597	1.522815909699625E12	1.522815909708E12	26.896939618726208	25937.0	136.71875	4480.0	3854.945054945055	2631.0	0.0	0.0	
0.01563578955466902	0.9278036466829529	-0.054428571386331934	0.36907712448428864	0.1412213740458015	-131.0	-0.026717557251908396	-14.0	-0.022900763358778626	91.0	0.21686746987951808	1236.0	9.771084337349398	2029.0	0.1927710843373494	2031.0	0.4309090909090909	-474.0	-0.8163636363636364	-898.0	-0.15612244897959185	153.0	95.24834031530732	39933.0	0.9999694404162746	0.007253397395956371	-4.2551250943094536E-4	0.002885376731609468	1.5228159097074375E12	1.522815909718E12	26.896939618726208	25937.0	144.53125	4736.0	3843.223443223443	2623.0	0.0	0.0	
0.018783187325516527	0.9278925947356235	-0.05406017503228989	0.3689076173090158	0.2809160305343511	-129.0	-0.05190839694656497	-25.0	0.19541984732824422	77.0	0.1927710843373494	1236.0	9.771084337349398	2031.0	0.14457831325301207	2035.0	0.4354545454545454	-479.0	-0.81	-891.0	-0.15510204081632656	152.0	95.24834031530732	39933.0	0.9999558993083858	0.008714262108517647	-5.077037337472668E-4	0.0034645795098466525	1.52281590971525E12	1.522815909724E12	26.896939618726208	25937.0	152.34375	4992.0	3849.0842490842488	2627.0	0.0	0.0	
0.021926128373055357	0.9278941209090594	-0.05378890849653544	0.3689434288664927	0.21882951653944022	-134.0	0.033078880407124533	-24.0	0.19338422391857513	75.0	0.20481927710843376	1235.0	9.783132530120483	2030.0	0.10843373493975904	2038.0	0.42727272727272725	-470.0	-0.82	-902.0	-0.15816326530612246	155.0	95.2542922502112	39935.0	0.9999399062137079	0.010172359035739565	-5.896794440633456E-4	0.00404466947007915	1.5228159097230625E12	1.522815909737E12	26.896939618726208	25937.0	160.15625	5248.0	3860.8058608058604	2635.0	0.0	0.0	
0.025069536455572163	0.9282797973458051	-0.0534317054874471	0.36802400830529935	0.3555070883315158	-134.0	0.02835332606324979	-35.0	-0.12431842966194105	94.0	0.20481927710843376	1234.0	9.795180722891567	2030.0	0.060240963855421686	2042.0	0.42727272727272725	-470.0	-0.8154545454545454	-897.0	-0.15510204081632656	152.0	95.2542922502112	39935.0	0.9999214408213501	0.011635467409770098	-6.697365057660805E-4	0.0046129748454000665	1.522815909730875E12	1.522815909739E12	26.896939618726208	25937.0	167.96875	5504.0	3856.4102564102564	2632.0	0.0	0.0	
0.02822528653552296	0.9283410876203159	-0.05357133083783379	0.3678490689764348	0.4179389312977099	-124.0	-0.12786259541984732	-42.0	0.1965648854961832	74.0	0.21686746987951808	1235.0	9.783132530120483	2029.0	0.03614457831325302	2044.0	0.42727272727272725	-470.0	-0.8172727272727273	-899.0	-0.15510204081632656	152.0	95.2542922502112	39935.0	0.9999004183027947	0.013100911712727335	-7.560079856411699E-4	0.00519115036545729	1.5228159097386875E12	1.522815909776E12	26.896939618726208	25937.0	175.78125	5760.0	3841.7582417582416	2622.0	0.0	0.0	
0.03137062783104754	0.9287158834656628	-0.05341106852414902	0.36692514980288304	0.38676844783715014	-129.0	-0.0373197625106024	-43.0	-0.11535199321458865	93.0	0.20481927710843376	1236.0	9.771084337349398	2030.0	-0.04819277108433735	2051.0	0.4254545454545455	-468.0	-0.81	-891.0	-0.15816326530612246	155.0	95.24834031530732	39933.0	0.9998769879857611	0.01456660285204839	-8.377350241836223E-4	0.005755100164392281	1.5228159097465E12	1.522815909777E12	26.896939618726208	25937.0	183.59375	6016.0	3849.0842490842488	2627.0	0.0	0.0	
0.03451598867536613	0.9291229856203727	-0.052946882263369154	0.36596052416866265	0.40916030534351144	-133.0	0.027480916030534524	-47.0	-0.14961832061068697	96.0	0.1927710843373494	1235.0	9.783132530120483	2031.0	-0.13253012048192772	2058.0	0.42727272727272725	-470.0	-0.8018181818181818	-882.0	-0.15612244897959185	153.0	95.2572682188344	39936.0	0.9998510845118375	0.016034003273627355	-9.137116363259288E-4	0.006315431146739738	1.5228159097543125E12	1.522815909778E12	26.896939618726208	25937.0	191.40625	6272.0	3863.7362637362635	2637.0	0.0	0.0	
0.03764920382320198	0.9292039652609768	-0.05252694693744512	0.3658154053468182	0.09715475364330331	-126.0	-0.08188757807078433	-29.0	0.15405968077723806	77.0	0.1566265060240964	1235.0	9.783132530120483	2034.0	-0.1927710843373494	2063.0	0.42818181818181816	-471.0	-0.8163636363636364	-898.0	-0.15918367346938778	156.0	95.2572682188344	39936.0	0.9998228224136649	0.01749086167128599	-9.887404673739133E-4	0.006885922672908035	1.522815909762125E12	1.522815909788E12	26.896939618726208	25937.0	199.21875	6528.0	3854.945054945055	2631.0	0.0	0.0	
0.04077661192750613	0.9292581792317096	-0.051997104978906035	0.365753383313386	0.012722646310432606	-136.0	0.07760814249363882	-24.0	0.17175572519083968	75.0	0.18072289156626506	1234.0	9.795180722891567	2032.0	-0.18072289156626506	2062.0	0.42818181818181816	-471.0	-0.8163636363636364	-898.0	-0.15714285714285717	154.0	95.24834031530732	39933.0	0.9997921656895467	0.018944687516355196	-0.00106005944052591	0.007456575265929429	1.5228159097699375E12	1.522815909789E12	26.896939618726208	25937.0	207.03125	6784.0	3843.223443223443	2623.0	0.0	0.0	
0.04389746393776175	0.9293235993388923	-0.05180890656252296	0.3656138467182335	-0.07985907222548448	-129.0	-0.03523194362889039	-18.0	0.14327657075748682	76.0	0.20481927710843376	1235.0	9.783132530120483	2030.0	-0.10843373493975904	2056.0	0.43	-473.0	-0.8118181818181818	-893.0	-0.15612244897959185	153.0	95.24834031530732	39933.0	0.9997591362523244	0.020395836897221815	-0.001137048503690571	0.008024116024101564	1.52281590977775E12	1.522815909794E12	26.896939618726208	25937.0	214.84375	7040.0	3840.29304029304	2621.0	0.0	0.0	
0.047010551898748795	0.929401069933172	-0.050967056738245885	0.36553523815666095	-0.21155943293347867	-146.0	0.22682660850599787	-9.0	0.2246455834242093	70.0	0.1566265060240964	1236.0	9.771084337349398	2034.0	-0.04819277108433735	2051.0	0.43363636363636365	-477.0	-0.8090909090909091	-890.0	-0.15816326530612246	155.0	95.24834031530732	39933.0	0.9997237637199559	0.021843817042566126	-0.0011978844210588035	0.008591215486204543	1.5228159097855625E12	1.522815909795E12	26.896939618726208	25937.0	222.65625	7296.0	3859.340659340659	2634.0	0.0	0.0	
0.05011939334323267	0.9295102834445833	-0.05029749670689542	0.365350235795868	-0.22798982188295164	-134.0	0.028498727735369073	-7.0	0.08753180661577609	78.0	0.13253012048192772	1234.0	9.795180722891567	2036.0	-0.012048192771084338	2048.0	0.43	-473.0	-0.8090909090909091	-890.0	-0.15408163265306124	151.0	95.24238838352687	39931.0	0.9996860222330788	0.02329080785147447	-0.0012603080913416418	0.009154607853157517	1.522815909793375E12	1.522815909805E12	26.896939618726208	25937.0	230.46875	7552.0	3850.5494505494503	2628.0	0.0	0.0	
0.053241478543016404	0.9295806822239077	-0.04991641452736559	0.3652233656237233	-0.061068702290076333	-123.0	-0.1412213740458015	-17.0	0.18893129770992365	71.0	0.13253012048192772	1235.0	9.783132530120483	2036.0	0.0	2047.0	0.42818181818181816	-471.0	-0.8190909090909091	-901.0	-0.15612244897959185	153.0	95.24834031530732	39933.0	0.9996456890450051	0.024743202296549506	-0.0013286549152616033	0.00972136770036467	1.5228159098011875E12	1.522815909806E12	26.896939618726208	25937.0	238.28125	7808.0	3847.6190476190473	2626.0	0.0	0.0	
0.05637140011060103	0.9296064432075776	-0.04961559675981878	0.3651987860121937	-0.011674898967220489	-127.0	-0.07184553210597233	-20.0	0.40682532555006723	56.0	0.16867469879518074	1234.0	9.795180722891567	2033.0	-0.024096385542168676	2049.0	0.43454545454545457	-478.0	-0.8163636363636364	-898.0	-0.15714285714285717	154.0	95.24834031530732	39933.0	0.9996028094523701	0.026198139275464192	-0.0013982651730166137	0.010292020595474188	1.522815909809E12	1.522815909818E12	26.896939618726208	25937.0	246.09375	8064.0	3850.5494505494503	2628.0	0.0	0.0	
0.05949889994167244	0.9296488608578259	-0.049687082268800156	0.3650810723131494	-0.011026293469041548	-118.0	-0.20525869380831233	-20.0	0.3078880407124683	61.0	0.21686746987951808	1234.0	9.795180722891567	2029.0	-0.060240963855421686	2052.0	0.43	-473.0	-0.8154545454545454	-897.0	-0.15510204081632656	152.0	95.25131628236882	39934.0	0.9995575177488244	0.027652462979829137	-0.001477945341368892	0.010859359121314093	1.5228159098168125E12	1.522815909826E12	26.896939618726208	25937.0	253.90625	8320.0	3852.014652014652	2629.0	0.0	0.0	
0.0626142200625878	0.929768448013366	-0.04954141984028986	0.36479621818062663	-0.1173161912414624	-130.0	-0.011249497790277105	-13.0	0.13901165126556855	71.0	0.21686746987951808	1234.0	9.795180722891567	2029.0	-0.07228915662650603	2053.0	0.4290909090909091	-472.0	-0.8145454545454546	-896.0	-0.15714285714285717	154.0	95.24834031530732	39933.0	0.9995099724571402	0.0291036083170185	-0.0015507453297447648	0.011418849792272104	1.522815909824625E12	1.522815909835E12	26.896939618726208	25937.0	261.71875	8576.0	3863.7362637362635	2637.0	0.0	0.0	
0.0657449782521899	0.9298429426665422	-0.04932268702753424	0.3646359479229578	0.056488549618320595	-140.0	0.14198473282442764	-24.0	0.3610687022900764	56.0	0.24096385542168675	1234.0	9.795180722891567	2027.0	-0.12048192771084337	2057.0	0.43	-473.0	-0.8163636363636364	-898.0	-0.15816326530612246	155.0	95.24834031530732	39933.0	0.9994597483816386	0.030560747334461923	-0.0016210675017681716	0.011984332581563506	1.5228159098324375E12	1.522815909843E12	26.896939618726208	25937.0	269.53125	8832.0	3846.1538461538457	2625.0	0.0	0.0	
0.06887599892710856	0.9299033396265974	-0.04929270900248774	0.36448595005922496	0.05379861868411489	-134.0	0.043620501635768874	-24.0	0.38967648127953464	53.0	0.26506024096385544	1235.0	9.783132530120483	2025.0	-0.16867469879518074	2061.0	0.42727272727272725	-470.0	-0.8136363636363636	-895.0	-0.15714285714285717	154.0	95.25131628236882	39934.0	0.999407070699933	0.032017681136241184	-0.001697206765400928	0.012549686005345758	1.52281590984025E12	1.52281590985E12	26.896939618726208	25937.0	277.34375	9088.0	3850.5494505494503	2628.0	0.0	0.0	
0.07198158501316305	0.9300545133656689	-0.04939361277325193	0.364086354022671	-0.23872310895211657	-127.0	-0.06523247744621802	-5.0	0.12768910478834136	69.0	0.27710843373493976	1234.0	9.795180722891567	2024.0	-0.1927710843373494	2063.0	0.4354545454545454	-479.0	-0.81	-891.0	-0.16020408163265307	157.0	95.25131628236882	39934.0	0.9993524013367855	0.03346617292219435	-0.0017773315032251684	0.013100927641585861	1.5228159098480625E12	1.522815909859E12	26.896939618726208	25937.0	285.15625	9344.0	3843.223443223443	2623.0	0.0	0.0	
0.07509055924705167	0.9301247242797402	-0.0494679540583836	0.3638968518754333	-0.24361101891802187	-129.0	-0.03186193162960497	-4.0	0.3053435114503817	57.0	0.28915662650602414	1234.0	9.795180722891567	2023.0	-0.18072289156626506	2062.0	0.4318181818181818	-475.0	-0.8127272727272727	-894.0	-0.15714285714285717	154.0	95.25131628236882	39934.0	0.999295258781253	0.034913588863391784	-0.001856851844514695	0.013659399372379626	1.522815909855875E12	1.522815909864E12	26.896939618726208	25937.0	292.96875	9600.0	3863.7362637362635	2637.0	0.0	0.0	
0.07818860875500772	0.9302109078203405	-0.049591347763196555	0.36365968321928516	-0.3403307888040712	-123.0	-0.12213740458015267	3.0	0.12468193384223926	68.0	0.28915662650602414	1234.0	9.795180722891567	2023.0	-0.16867469879518074	2061.0	0.4263636363636364	-469.0	-0.8172727272727273	-899.0	-0.15408163265306124	151.0	95.25131628236882	39934.0	0.9992359150067636	0.036356685668571254	-0.0019382454316000833	0.014213401156643197	1.5228159098636875E12	1.522815909876E12	26.896939618726208	25937.0	300.78125	9856.0	3847.6190476190473	2626.0	0.0	0.0	
0.08128625339899469	0.930309992484136	-0.04986079968282317	0.3633692592103751	-0.31145038167938927	-127.0	-0.05618320610687033	2.0	0.07389312977099241	71.0	0.3614457831325301	1236.0	9.771084337349398	2017.0	-0.12048192771084337	2057.0	0.4263636363636364	-469.0	-0.8136363636363636	-895.0	-0.15306122448979592	150.0	95.2572682188344	39936.0	0.9991741818136943	0.03780029806474316	-0.002025940928275374	0.01476439726186357	1.5228159098715E12	1.522815909877E12	26.896939618726208	25937.0	308.59375	10112.0	3852.014652014652	2629.0	0.0	0.0	
0.0843788746818315	0.93041735737276	-0.049982515400081626	0.3630775251286677	-0.40634174985320026	-134.0	0.052847915443335156	9.0	0.16265413975337648	65.0	0.3493975903614458	1235.0	9.783132530120483	2018.0	-0.060240963855421686	2052.0	0.43272727272727274	-476.0	-0.8118181818181818	-893.0	-0.15816326530612246	155.0	95.2572682188344	39936.0	0.9991101576896423	0.03924214088273757	-0.0021081086841953497	0.015313492681055618	1.5228159098793125E12	1.52281590988E12	26.896939618726208	25937.0	316.40625	10368.0	3844.688644688644	2624.0	0.0	0.0	
0.08746944610568874	0.9305443759959647	-0.0503296515974967	0.36270386057001747	-0.3607577042691546	-131.0	0.005089058524173172	7.0	-0.011309018942606617	76.0	0.42168674698795183	1235.0	9.783132530120483	2012.0	0.0	2047.0	0.4290909090909091	-472.0	-0.8145454545454546	-896.0	-0.15612244897959185	153.0	95.26024418823849	39937.0	0.9990437894283914	0.040684128079533706	-0.002200451740519405	0.015857696525840823	1.522815909887125E12	1.522815909894E12	26.896939618726208	25937.0	324.21875	10624.0	3860.8058608058604	2635.0	0.0	0.0	
0.09057338248267763	0.9307018914182246	-0.05095630260718001	0.36221187795983933	-0.14940021810250814	-114.0	-0.25463467829880027	-6.0	-0.01090512540894211	76.0	0.46987951807228917	1236.0	9.771084337349398	2008.0	-0.03614457831325302	2050.0	0.43	-473.0	-0.8027272727272727	-883.0	-0.15612244897959185	153.0	95.2542922502112	39935.0	0.9989747330415102	0.04213400375248586	-0.0023068536392378994	0.016397771150866686	1.5228159098949375E12	1.522815909926E12	26.896939618726208	25937.0	332.03125	10880.0	3844.688644688644	2624.0	0.0	0.0	
0.09368834768985122	0.9308632291119159	-0.051694599071814215	0.3616922961773871	0.0694919715714662	-115.0	-0.23058699657804677	-20.0	-0.08686496446433273	81.0	0.5421686746987953	1233.0	9.807228915662652	2002.0	-0.12048192771084337	2057.0	0.43	-473.0	-0.8172727272727273	-899.0	-0.15510204081632656	152.0	95.2542922502112	39935.0	0.9989030123107498	0.043589572858155054	-0.0024207052358956645	0.016936980861838397	1.52281590990275E12	1.522815909928E12	26.896939618726208	25937.0	339.84375	11136.0	3852.014652014652	2629.0	0.0	0.0	
0.09677916242033366	0.9310295644952957	-0.052391523846660924	0.36116350627492183	-0.2687022900763359	-120.0	-0.1465648854961831	2.0	-0.1450381679389313	85.0	0.5662650602409639	1235.0	9.783132530120483	2000.0	-0.14457831325301207	2059.0	0.43363636363636365	-477.0	-0.8090909090909091	-890.0	-0.15714285714285717	154.0	95.24834031530732	39933.0	0.9988294526499784	0.045034550797318065	-0.002534214628619641	0.017469731241340887	1.5228159099105625E12	1.522815909929E12	26.896939618726208	25937.0	347.65625	11392.0	3859.340659340659	2634.0	0.0	0.0	
0.09985221196763533	0.9312307630625994	-0.05285520254090804	0.3605767511782839	-0.4279734055651317	-133.0	0.05663629647869995	13.0	-0.3999015020930804	102.0	0.5421686746987953	1236.0	9.771084337349398	2002.0	-0.14457831325301207	2059.0	0.42727272727272725	-470.0	-0.8163636363636364	-898.0	-0.15816326530612246	155.0	95.26024418823849	39937.0	0.9987539508297549	0.04647341342664624	-0.002637758305314512	0.017994715267389508	1.522815909918375E12	1.52281590993E12	26.896939618726208	25937.0	355.46875	11648.0	3863.7362637362635	2637.0	0.0	0.0	
0.10292428638335711	0.9314641421540515	-0.053163955432129005	0.359927972966774	-0.3687977099236641	-132.0	0.03959923664122137	10.0	-0.5706106870229007	114.0	0.5060240963855422	1237.0	9.759036144578314	2005.0	-0.1566265060240964	2060.0	0.42727272727272725	-470.0	-0.8190909090909091	-901.0	-0.15408163265306124	151.0	95.26024418823849	39937.0	0.9986761161236489	0.04791398567374953	-0.002734723628806743	0.018514490209392873	1.5228159099261875E12	1.522815909931E12	26.896939618726208	25937.0	363.28125	11904.0	3847.6190476190473	2626.0	0.0	0.0	
0.10599944491060836	0.931738365027836	-0.053360630819401685	0.35918833808161393	-0.2812861438815637	-129.0	-0.007402266944251887	5.0	-0.6449225075179275	120.0	0.45783132530120485	1234.0	9.795180722891567	2009.0	-0.1927710843373494	2063.0	0.4263636363636364	-469.0	-0.8172727272727273	-899.0	-0.15816326530612246	155.0	95.25131628236882	39934.0	0.9985958434422041	0.049358759288643986	-0.0028267748017721255	0.01902797113879581	1.522815909934E12	1.522815909941E12	26.896939618726208	25937.0	371.09375	12160.0	3865.201465201465	2638.0	0.0	0.0	
0.10905602968524057	0.9320150531148157	-0.05338071738559821	0.3584667903429811	-0.5325550067355187	-141.0	0.17602155365963182	22.0	-0.6870229007633587	124.0	0.44578313253012053	1235.0	9.783132530120483	2010.0	-0.18072289156626506	2062.0	0.43454545454545457	-478.0	-0.8172727272727273	-899.0	-0.15918367346938778	156.0	95.2572682188344	39936.0	0.9985137161179503	0.05079575004408716	-0.0029093023427368084	0.01953679763059056	1.5228159099418125E12	1.522815909948E12	26.896939618726208	25937.0	378.90625	12416.0	3846.1538461538457	2625.0	0.0	0.0	
0.11211028568471013	0.9322979313128461	-0.053154732390859716	0.3577640866468717	-0.517339149400218	-148.0	0.27786259541984715	22.0	-0.7742639040348963	131.0	0.3855421686746988	1234.0	9.795180722891567	2015.0	-0.16867469879518074	2061.0	0.4290909090909091	-472.0	-0.8127272727272727	-894.0	-0.15306122448979592	150.0	95.2572682188344	39936.0	0.998429321824422	0.05223272958237049	-0.0029780359579746596	0.020044016150282673	1.522815909949625E12	1.522815909955E12	26.896939618726208	25937.0	386.71875	12672.0	3863.7362637362635	2637.0	0.0	0.0	
0.11514699951640292	0.9325778543949027	-0.052856015920866944	0.3570781246074145	-0.7625106022052587	-148.0	0.2701441899915184	39.0	-0.8138252756573368	135.0	0.3493975903614458	1237.0	9.759036144578314	2018.0	-0.08433734939759037	2054.0	0.42818181818181816	-471.0	-0.8027272727272727	-883.0	-0.15306122448979592	150.0	95.24536434902667	39932.0	0.9983431038158952	0.05366211370089428	-0.0030414249306425986	0.020546881777734293	1.5228159099574375E12	1.522815909966E12	26.896939618726208	25937.0	394.53125	12928.0	3844.688644688644	2624.0	0.0	0.0	
0.11821935431081176	0.9328128572255289	-0.052598262303071845	0.35650188806994726	-0.3144212915205282	-140.0	0.1407055910872706	11.0	-0.5017536620590056	116.0	0.3373493975903615	1236.0	9.771084337349398	2019.0	-0.08433734939759037	2054.0	0.43	-473.0	-0.8163636363636364	-898.0	-0.15408163265306124	151.0	95.25131628236882	39934.0	0.9982535316288087	0.05510616401843161	-0.0031072561308583993	0.02106044247213171	1.52281590996525E12	1.52281590997E12	26.896939618726208	25937.0	402.34375	13184.0	3850.5494505494503	2628.0	0.0	0.0	
0.12127592956874231	0.9330846675406547	-0.05245034061434658	0.35581169875376945	-0.47408597830453997	-135.0	0.06066693451185235	22.0	-0.7022900763358778	130.0	0.3614457831325301	1235.0	9.783132530120483	2017.0	-0.13253012048192772	2058.0	0.43272727272727274	-476.0	-0.8127272727272727	-894.0	-0.15816326530612246	155.0	95.25131628236882	39934.0	0.9981620818799986	0.05654568760872066	-0.003178533179809873	0.021562477516952935	1.5228159099730625E12	1.522815909984E12	26.896939618726208	25937.0	410.15625	13440.0	3847.6190476190473	2626.0	0.0	0.0	
0.12430381771855997	0.9333151912187224	-0.05222961513378082	0.35523910418657595	-0.904678019181836	-135.0	0.05911137208847117	51.0	-0.7148169896261498	132.0	0.3132530120481928	1236.0	9.771084337349398	2021.0	-0.13253012048192772	2058.0	0.4254545454545455	-468.0	-0.8172727272727273	-899.0	-0.15816326530612246	155.0	95.24536434902667	39932.0	0.998069191769425	0.057969982223038306	-0.0032440807663997977	0.022064576627894877	1.522815909980875E12	1.522815909987E12	26.896939618726208	25937.0	417.96875	13696.0	3827.106227106227	2612.0	0.0	0.0	
0.1273392090312655	0.9335574079801724	-0.05187268497370974	0.3546544664303742	-0.7751908396946565	-142.0	0.1645038167938932	44.0	-0.6816793893129771	131.0	0.28915662650602414	1235.0	9.783132530120483	2023.0	-0.0963855421686747	2055.0	0.4318181818181818	-475.0	-0.8154545454545454	-897.0	-0.15714285714285717	154.0	95.24238838352687	39931.0	0.9979737753647574	0.059399079788476326	-0.0033004823562616118	0.022565456359470843	1.5228159099886875E12	1.522815910001E12	26.896939618726208	25937.0	425.78125	13952.0	3846.1538461538457	2625.0	0.0	0.0	
0.13037625679349796	0.9337974003898575	-0.05147583715642323	0.3540800096222979	-0.7257493948985291	-144.0	0.19102587972444593	42.0	-0.695587413889406	133.0	0.27710843373493976	1237.0	9.759036144578314	2024.0	-0.03614457831325302	2050.0	0.4318181818181818	-475.0	-0.8172727272727273	-899.0	-0.15612244897959185	153.0	95.24238838352687	39931.0	0.9978760062757823	0.06082940112139226	-0.0033532373779796903	0.023065468939396216	1.5228159099965E12	1.522815910002E12	26.896939618726208	25937.0	433.59375	14208.0	3863.7362637362635	2637.0	0.0	0.0	
0.13340609676537457	0.9340279695361775	-0.05116107886659377	0.3535170379674552	-0.8458742275536167	-144.0	0.1864776444929118	51.0	-0.633224282079244	130.0	0.3132530120481928	1234.0	9.795180722891567	2021.0	0.0	2047.0	0.43454545454545457	-478.0	-0.8072727272727273	-888.0	-0.15816326530612246	155.0	95.24834031530732	39933.0	0.9977761763892724	0.062256322725875356	-0.003410069870289099	0.02356318174896471	1.5228159100043125E12	1.522815910007E12	26.896939618726208	25937.0	441.40625	14464.0	3846.1538461538457	2625.0	0.0	0.0	
0.1364280674936305	0.9342127271329713	-0.05084392474988667	0.3530743204748971	-0.9636073140422512	-156.0	0.36534706195632854	60.0	-0.5879637848393395	128.0	0.3493975903614458	1235.0	9.783132530120483	2018.0	0.0963855421686747	2039.0	0.4290909090909091	-472.0	-0.8172727272727273	-899.0	-0.15612244897959185	153.0	95.25131628236882	39934.0	0.9976743248203207	0.06367700851493083	-0.003465580092413163	0.024065949711776252	1.522815910012125E12	1.522815910019E12	26.896939618726208	25937.0	449.21875	14720.0	3863.7362637362635	2637.0	0.0	0.0	
0.13946331140377663	0.9344284592827046	-0.050492984360067404	0.3525534186658243	-0.6974323386537127	-155.0	0.3417765440666202	44.0	-0.6967383761276892	136.0	0.3373493975903615	1235.0	9.783132530120483	2019.0	0.18072289156626506	2032.0	0.43	-473.0	-0.8145454545454546	-896.0	-0.15408163265306124	151.0	95.25131628236882	39934.0	0.9975697331011747	0.06510645025942924	-0.0035181066480064064	0.02456421504304141	1.5228159100199375E12	1.522815910025E12	26.896939618726208	25937.0	457.03125	14976.0	3846.1538461538457	2625.0	0.0	0.0	
0.14251929897166976	0.9346661839740181	-0.05001267900039693	0.35199127329330876	-0.3460559796437657	-155.0	0.33418150975402877	22.0	-0.7117896522476677	138.0	0.27710843373493976	1235.0	9.783132530120483	2024.0	0.22891566265060243	2028.0	0.4309090909090909	-474.0	-0.8163636363636364	-898.0	-0.15204081632653063	149.0	95.24834031530732	39933.0	0.9974621053895179	0.06654763048613878	-0.0035608705426672473	0.025061552018361827	1.52281591002775E12	1.522815910039E12	26.896939618726208	25937.0	464.84375	15232.0	3853.4798534798533	2630.0	0.0	0.0	
0.14557172138504834	0.9349666664879231	-0.049466074850726655	0.35126975388629084	-0.29273149684699645	-145.0	0.17424493859940265	19.0	-0.9558579488881515	155.0	0.1927710843373494	1234.0	9.795180722891567	2031.0	0.24096385542168675	2027.0	0.4354545454545454	-479.0	-0.8172727272727273	-899.0	-0.15816326530612246	155.0	95.24834031530732	39933.0	0.9973522784721713	0.06799228170359956	-0.003597252625760206	0.02554490220480954	1.5228159100355625E12	1.522815910041E12	26.896939618726208	25937.0	472.65625	15488.0	3857.8754578754574	2633.0	0.0	0.0	
0.148624072097126	0.9352790648745503	-0.04879967260488728	0.3505305446905481	-0.24070164040929035	-149.0	0.23160630177034267	16.0	-1.0271235991554328	161.0	0.14457831325301207	1234.0	9.795180722891567	2035.0	0.3132530120481928	2021.0	0.43454545454545457	-478.0	-0.8090909090909091	-890.0	-0.15510204081632656	152.0	95.24834031530732	39933.0	0.9972401310637049	0.06943854055658283	-0.0036230662831921103	0.026024670451787014	1.522815910043375E12	1.522815910077E12	26.896939618726208	25937.0	480.46875	15744.0	3857.8754578754574	2633.0	0.0	0.0	
0.1516895895426999	0.9355201172187285	-0.048128539600435546	0.3499796479153275	-0.1898854961832061	-143.0	0.1351781170483459	13.0	-0.5629770992366412	132.0	0.0963855421686747	1235.0	9.783132530120483	2039.0	0.39759036144578314	2014.0	0.4354545454545454	-479.0	-0.8163636363636364	-898.0	-0.15816326530612246	155.0	95.2572682188344	39936.0	0.9971251620588719	0.07088632418663625	-0.003646800531546641	0.026518692996796694	1.5228159100511875E12	1.522815910079E12	26.896939618726208	25937.0	488.28125	16000.0	3847.6190476190473	2626.0	0.0	0.0	
0.1547667617926544	0.9357751265092462	-0.04741947434910357	0.3493941986624951	0.05826452718491994	-138.0	0.05608350210313116	-3.0	-0.6888923508334633	141.0	0.060240963855421686	1234.0	9.795180722891567	2042.0	0.39759036144578314	2014.0	0.4318181818181818	-475.0	-0.8181818181818182	-900.0	-0.15204081632653063	149.0	95.24834031530732	39933.0	0.9970073999819605	0.07234119380270973	-0.003665818086774322	0.02701032836090913	1.522815910059E12	1.52281591008E12	26.896939618726208	25937.0	496.09375	16256.0	3853.4798534798533	2630.0	0.0	0.0	
0.15784635430775432	0.9360281556159471	-0.04671236720978103	0.34881119053702764	0.07236641221374036	-133.0	-0.021374045801526805	-4.0	-0.5682442748091601	134.0	0.024096385542168676	1234.0	9.795180722891567	2045.0	0.30120481927710846	2022.0	0.43363636363636365	-477.0	-0.8154545454545454	-897.0	-0.15612244897959185	153.0	95.24834031530732	39933.0	0.9968871823348172	0.07379764760266466	-0.0036828623085223755	0.027500716901168957	1.5228159100668125E12	1.522815910081E12	26.896939618726208	25937.0	503.90625	16512.0	3856.4102564102564	2632.0	0.0	0.0	
0.16094819051609918	0.9362736431854521	-0.04588645909839922	0.34826153670427434	0.3610237988325103	-142.0	0.11644963328842983	-23.0	-0.3128274210447537	118.0	-0.024096385542168676	1234.0	9.795180722891567	2049.0	0.28915662650602414	2023.0	0.4354545454545454	-479.0	-0.8118181818181818	-893.0	-0.15918367346938778	156.0	95.25131628236882	39934.0	0.996763707102859	0.07526447646786509	-0.003688686898474453	0.027995792068611625	1.522815910074625E12	1.522815910082E12	26.896939618726208	25937.0	511.71875	16768.0	3871.0622710622706	2642.0	0.0	0.0	
0.16405319719232433	0.9365058763545627	-0.0449901625467659	0.34775368988323396	0.43041691133294196	-148.0	0.20581327069876681	-28.0	-0.29154433352906667	117.0	-0.060240963855421686	1235.0	9.783132530120483	2052.0	0.3132530120481928	2021.0	0.43	-473.0	-0.8163636363636364	-898.0	-0.15714285714285717	154.0	95.2542922502112	39935.0	0.9966377044244943	0.07673227690927553	-0.0036862530154853504	0.028493075272749333	1.5228159100824375E12	1.522815910095E12	26.896939618726208	25937.0	519.53125	17024.0	3846.1538461538457	2625.0	0.0	0.0	
0.16717219873063632	0.9366912058456243	-0.044167126458246435	0.3473598276022367	0.5444332421143598	-155.0	0.30880023044793303	-36.0	0.034567189975515195	96.0	0.012048192771084338	1234.0	9.795180722891567	2046.0	0.3373493975903615	2019.0	0.43636363636363634	-480.0	-0.8118181818181818	-893.0	-0.15306122448979592	150.0	95.2542922502112	39935.0	0.9965087154012847	0.07820322701202555	-0.0036874604942670297	0.029000656014819864	1.52281591009025E12	1.522815910105E12	26.896939618726208	25937.0	527.34375	17280.0	3844.688644688644	2624.0	0.0	0.0	
0.17029467232171316	0.936868217929071	-0.043529276170656314	0.346962742020596	0.5954198473282443	-138.0	0.04353972292903584	-40.0	0.049194232400339585	95.0	0.060240963855421686	1233.0	9.807228915662652	2042.0	0.30120481927710846	2022.0	0.4390909090909091	-483.0	-0.8109090909090909	-892.0	-0.15000000000000002	147.0	95.25131628236882	39934.0	0.9963771551889002	0.07967547614635022	-0.003701924922663554	0.02950726809437694	1.5228159100980625E12	1.522815910117E12	26.896939618726208	25937.0	535.15625	17536.0	3844.688644688644	2624.0	0.0	0.0	
0.17341400206034843	0.9370336427361048	-0.04292601937410571	0.3465909826314225	0.5540596807772379	-154.0	0.28702290076335896	-38.0	0.09410131852879977	92.0	0.12048192771084337	1237.0	9.759036144578314	2037.0	0.3614457831325301	2017.0	0.4354545454545454	-479.0	-0.81	-891.0	-0.15408163265306124	151.0	95.2572682188344	39936.0	0.9962433024747388	0.08114561091589498	-0.0037173244453938305	0.03001422333294786	1.522815910105875E12	1.522815910123E12	26.896939618726208	25937.0	542.96875	17792.0	3860.8058608058604	2635.0	0.0	0.0	
0.17655064249441726	0.9372127655098017	-0.04231537838259597	0.34618151440795214	0.8495092693565974	-138.0	0.03762268266085072	-58.0	0.0771537622682659	93.0	0.04819277108433735	1232.0	9.819277108433736	2043.0	0.3373493975903615	2019.0	0.43	-473.0	-0.81	-891.0	-0.15204081632653063	149.0	95.2572682188344	39936.0	0.9961062633205792	0.08262535019448791	-0.003730554134708582	0.03051961081991479	1.5228159101136875E12	1.522815910131E12	26.896939618726208	25937.0	550.78125	18048.0	3846.1538461538457	2625.0	0.0	0.0	
0.17970270311895625	0.9373624423960172	-0.04205122519453631	0.3458082504004018	0.9720101781170483	-125.0	-0.16151064684612276	-67.0	0.39641087451453033	72.0	0.22891566265060243	1237.0	9.759036144578314	2028.0	0.3855421686746988	2015.0	0.44363636363636366	-488.0	-0.8018181818181818	-882.0	-0.15612244897959185	153.0	95.24834031530732	39933.0	0.9959660823146552	0.08411000193563112	-0.003773277520557866	0.031029547691485995	1.5228159101215E12	1.522815910132E12	26.896939618726208	25937.0	558.59375	18304.0	3850.5494505494503	2628.0	0.0	0.0	
0.18287733848069868	0.9375266735693701	-0.041725937254461706	0.345402203968275	1.3827322979731507	-148.0	0.19241905764674908	-95.0	0.3285075019742038	76.0	0.27710843373493976	1233.0	9.807228915662652	2024.0	0.2530120481927711	2026.0	0.43636363636363634	-480.0	-0.8081818181818182	-889.0	-0.15510204081632656	152.0	95.2542922502112	39935.0	0.9958223968565417	0.08560678145927746	-0.0038100496683755665	0.031539125044933475	1.5228159101293125E12	1.522815910138E12	26.896939618726208	25937.0	566.40625	18560.0	3847.6190476190473	2626.0	0.0	0.0	
0.1860286251788884	0.9376843684723298	-0.041400388526464216	0.3450130909871489	1.0844869970241946	-142.0	0.09755466425152022	-77.0	0.20080217363177622	84.0	0.2530120481927711	1234.0	9.795180722891567	2026.0	0.3493975903614458	2018.0	0.4409090909090909	-485.0	-0.82	-902.0	-0.15408163265306124	151.0	95.2542922502112	39935.0	0.9956772867300245	0.08709235780699408	-0.003845278402976591	0.03204490186533003	1.522815910137125E12	1.522815910152E12	26.896939618726208	25937.0	574.21875	18816.0	3859.340659340659	2634.0	0.0	0.0	
0.18920145881702682	0.9378799091587775	-0.041076089992419934	0.34452000062009397	1.5244274809160303	-145.0	0.1417302798982188	-107.0	-0.01628498727735385	98.0	0.26506024096385544	1235.0	9.783132530120483	2025.0	0.3253012048192771	2020.0	0.43272727272727274	-476.0	-0.8190909090909091	-901.0	-0.15408163265306124	151.0	95.2542922502112	39935.0	0.995528687082979	0.08859184627039907	-0.0038800347618721427	0.0325432527490532	1.5228159101449375E12	1.522815910159E12	26.896939618726208	25937.0	582.03125	19072.0	3846.1538461538457	2625.0	0.0	0.0	
0.19237335210914458	0.9380980285353109	-0.04077419858923339	0.34396155829913994	1.5605055687648606	-127.0	-0.13540232761857068	-111.0	-0.10762107370792143	104.0	0.21686746987951808	1235.0	9.783132530120483	2029.0	0.3253012048192771	2020.0	0.4309090909090909	-474.0	-0.8036363636363636	-884.0	-0.15306122448979592	150.0	95.2542922502112	39935.0	0.9953776271259566	0.09009345881971279	-0.003915889885454136	0.03303352692955943	1.52281591015275E12	1.52281591017E12	26.896939618726208	25937.0	589.84375	19328.0	3854.945054945055	2631.0	0.0	0.0	
0.19555560847601408	0.9383029754385527	-0.040429317971132354	0.3434428577384513	1.6574735286875153	-116.0	-0.30115735040630376	-119.0	0.13838955922186671	88.0	0.14457831325301207	1235.0	9.783132530120483	2035.0	0.21686746987951808	2029.0	0.43727272727272726	-481.0	-0.8081818181818182	-889.0	-0.15408163265306124	151.0	95.2542922502112	39935.0	0.9952235577499252	0.09159908619122382	-0.003946794029678175	0.03352760542301489	1.5228159101605625E12	1.522815910176E12	26.896939618726208	25937.0	597.65625	19584.0	3847.6190476190473	2626.0	0.0	0.0	
0.19873166558381594	0.9385289123711962	-0.03996608766753536	0.34287926808115726	1.6464316006300737	-109.0	-0.40324730401066267	-120.0	-0.0012116806009937365	97.0	0.03614457831325302	1234.0	9.795180722891567	2044.0	0.18072289156626506	2032.0	0.44	-484.0	-0.8127272727272727	-894.0	-0.15306122448979592	150.0	95.25131628236882	39934.0	0.9950672762734567	0.0931043183247849	-0.0039647317193386355	0.03401444548121848	1.522815910168375E12	1.522815910187E12	26.896939618726208	25937.0	605.46875	19840.0	3847.6190476190473	2626.0	0.0	0.0	
0.2019037235546033	0.938762817028117	-0.03938046302253956	0.3423062262033433	1.651240458015267	-114.0	-0.32061068702290074	-122.0	-0.07752862595419847	102.0	-0.03614457831325302	1235.0	9.783132530120483	2050.0	0.1566265060240964	2034.0	0.43272727272727274	-476.0	-0.8027272727272727	-883.0	-0.1489795918367347	146.0	95.2572682188344	39936.0	0.9949086869217997	0.0946089651568729	-0.003968781875869053	0.0344977850000239	1.5228159101761875E12	1.522815910188E12	26.896939618726208	25937.0	613.28125	20096.0	3847.6190476190473	2626.0	0.0	0.0	
0.20509071245604965	0.9389240344540413	-0.038846954704358644	0.3419248040648088	1.6869054609512624	-112.0	-0.3462125660598945	-126.0	0.5190839694656488	63.0	-0.03614457831325302	1235.0	9.783132530120483	2050.0	0.12048192771084337	2037.0	0.4318181818181818	-475.0	-0.82	-902.0	-0.15204081632653063	149.0	95.2572682188344	39936.0	0.9947468307097692	0.09611364472625476	-0.003976596898302529	0.03500138236432366	1.522815910184E12	1.52281591019E12	26.896939618726208	25937.0	621.09375	20352.0	3854.945054945055	2631.0	0.0	0.0	
0.20828955359461293	0.9391109246004462	-0.038313500546426044	0.3414714438602066	1.9056210964607911	-111.0	-0.3562340966921121	-142.0	0.5112190608373814	63.0	-0.03614457831325302	1233.0	9.807228915662652	2050.0	0.13253012048192772	2036.0	0.43636363636363634	-480.0	-0.8063636363636364	-887.0	-0.15510204081632656	152.0	95.26024418823849	39937.0	0.9945818325709094	0.09762679516905001	-0.003982941920994711	0.03549821627301759	1.5228159101918125E12	1.522815910221E12	26.896939618726208	25937.0	628.90625	20608.0	3854.945054945055	2631.0	0.0	0.0	
0.21148472876166255	0.9392672670472376	-0.03781100030070479	0.3410972431871814	1.8008431126808702	-114.0	-0.30511564315825446	-137.0	0.7020622080437509	50.0	-0.012048192771084338	1236.0	9.771084337349398	2048.0	0.04819277108433735	2043.0	0.43636363636363634	-480.0	-0.8127272727272727	-894.0	-0.15408163265306124	151.0	95.25131628236882	39934.0	0.994414483611813	0.09913535418845727	-0.003990777746161699	0.036001250338863304	1.522815910199625E12	1.522815910223E12	26.896939618726208	25937.0	636.71875	20864.0	3857.8754578754574	2633.0	0.0	0.0	
0.21468147345369956	0.9394197544200064	-0.03738185124320125	0.34072440799429704	1.8506960035922766	-101.0	-0.49910193084867527	-142.0	0.6764705882352942	51.0	0.0	1235.0	9.783132530120483	2047.0	0.07228915662650603	2041.0	0.4318181818181818	-475.0	-0.8063636363636364	-887.0	-0.1489795918367347	146.0	95.25131628236882	39934.0	0.9942445125479974	0.10064447690629297	-0.004004894347238483	0.03650341569936872	1.5228159102074375E12	1.522815910224E12	26.896939618726208	25937.0	644.53125	21120.0	3844.688644688644	2624.0	0.0	0.0	
0.2179012387355483	0.9395514463226257	-0.037002492715327254	0.34040254882400534	2.129217833831176	-104.0	-0.4460670428144704	-162.0	0.9567430025445293	32.0	0.04819277108433735	1235.0	9.783132530120483	2043.0	0.0	2047.0	0.4381818181818182	-482.0	-0.8190909090909091	-901.0	-0.1510204081632653	148.0	95.2542922502112	39935.0	0.9940707498862573	0.10216231659298991	-0.004023473531235447	0.037013740011930286	1.52281591021525E12	1.522815910234E12	26.896939618726208	25937.0	652.34375	21376.0	3843.223443223443	2623.0	0.0	0.0	
0.22111276263308172	0.9396979511839417	-0.03666653628433357	0.340034300707497	2.0377317339149403	-103.0	-0.4549618320610689	-158.0	0.9278080697928024	33.0	0.07228915662650603	1235.0	9.783132530120483	2041.0	-0.0963855421686747	2055.0	0.43363636363636365	-477.0	-0.7990909090909091	-879.0	-0.15408163265306124	151.0	95.2542922502112	39935.0	0.9938948655196956	0.10367809883507263	-0.004045466703462869	0.03751642726436662	1.5228159102230625E12	1.52281591024E12	26.896939618726208	25937.0	660.15625	21632.0	3853.4798534798533	2630.0	0.0	0.0	
0.22431848182652894	0.9398195677887573	-0.036573057353916985	0.3397080974559393	1.9479625846683148	-86.0	-0.7080959036662723	-154.0	0.914740350499946	33.0	0.20481927710843376	1234.0	9.795180722891567	2030.0	-0.16867469879518074	2061.0	0.43272727272727274	-476.0	-0.8172727272727273	-899.0	-0.15204081632653063	149.0	95.2542922502112	39935.0	0.9937167432718778	0.10518858515850554	-0.004093411426866681	0.038021568568052784	1.522815910230875E12	1.522815910246E12	26.896939618726208	25937.0	667.96875	21888.0	3856.4102564102564	2632.0	0.0	0.0	
0.22750180819611893	0.9399465856559054	-0.03655409076597837	0.33935853394615767	1.676632739609839	-88.0	-0.667726887192536	-138.0	0.7646310432569976	42.0	0.30120481927710846	1236.0	9.771084337349398	2022.0	-0.16867469879518074	2061.0	0.43727272727272726	-481.0	-0.8018181818181818	-882.0	-0.1479591836734694	145.0	95.2542922502112	39935.0	0.9935373389278556	0.10668934577987517	-0.004149099628548564	0.03851914621964205	1.5228159102386875E12	1.522815910257E12	26.896939618726208	25937.0	675.78125	22144.0	3846.1538461538457	2625.0	0.0	0.0	
0.23068408570419383	0.9400717950750295	-0.03648763662683609	0.33901869045494465	1.7147338701244381	-106.0	-0.38377078322702074	-142.0	0.7083551186866044	45.0	0.3253012048192771	1236.0	9.771084337349398	2020.0	-0.20481927710843376	2064.0	0.43272727272727274	-476.0	-0.8145454545454546	-896.0	-0.15000000000000002	147.0	95.25131628236882	39934.0	0.9933554779201416	0.10818953998583258	-0.00419923312507482	0.03901646274154247	1.5228159102465E12	1.522815910258E12	26.896939618726208	25937.0	683.59375	22400.0	3862.271062271062	2636.0	0.0	0.0	
0.23387470503197522	0.9402067080144206	-0.036400841871224714	0.3386536946731137	1.859500722096142	-103.0	-0.4243862182793479	-153.0	0.744584278935424	42.0	0.30120481927710846	1235.0	9.783132530120483	2022.0	-0.3373493975903615	2075.0	0.4318181818181818	-475.0	-0.8118181818181818	-893.0	-0.1510204081632653	148.0	95.25131628236882	39934.0	0.9931706153968095	0.10969488290569744	-0.00424692363146973	0.03951107460315976	1.5228159102543125E12	1.522815910261E12	26.896939618726208	25937.0	691.40625	22656.0	3835.8974358974356	2618.0	0.0	0.0	
0.23706648739184072	0.9403142762959839	-0.03638748238216252	0.33835634015023824	1.8194402035623407	-101.0	-0.449262086513995	-152.0	0.9636641221374046	27.0	0.3614457831325301	1234.0	9.795180722891567	2017.0	-0.45783132530120485	2085.0	0.43454545454545457	-478.0	-0.82	-902.0	-0.15000000000000002	147.0	95.25131628236882	39934.0	0.9929831564744439	0.1111976834870881	-0.004303033412150465	0.04001262361567359	1.522815910262125E12	1.522815910273E12	26.896939618726208	25937.0	699.21875	22912.0	3853.4798534798533	2630.0	0.0	0.0	
0.24022101256468914	0.9404201614041714	-0.03635056966693332	0.3380659049792517	1.322217758135797	-119.0	-0.1685415829650461	-121.0	0.8288469264764965	35.0	0.4096385542168675	1233.0	9.807228915662652	2013.0	-0.6265060240963856	2099.0	0.43363636363636365	-477.0	-0.8181818181818182	-900.0	-0.1510204081632653	148.0	95.2542922502112	39935.0	0.9927954008410044	0.11268294760561187	-0.00435559498330745	0.0405077051954533	1.5228159102699375E12	1.522815910276E12	26.896939618726208	25937.0	707.03125	23168.0	3846.1538461538457	2625.0	0.0	0.0	
0.24335871617287144	0.9405782552766658	-0.036260701538447675	0.3376354649983182	1.2592445722216719	-130.0	0.0015862000594822994	-118.0	0.375334589075047	64.0	0.42168674698795183	1235.0	9.783132530120483	2012.0	-0.7710843373493976	2111.0	0.43454545454545457	-478.0	-0.8045454545454546	-885.0	-0.15306122448979592	150.0	95.2542922502112	39935.0	0.9926061963042444	0.11416674800457492	-0.0044012992558406195	0.04098196278047291	1.52281591027775E12	1.522815910288E12	26.896939618726208	25937.0	714.84375	23424.0	3854.945054945055	2631.0	0.0	0.0	
0.24645368848289423	0.9407165178817841	-0.036169772733116	0.3372598116064361	0.6629477392836173	-131.0	0.016833039733803304	-80.0	0.2483852025836759	72.0	0.42168674698795183	1236.0	9.771084337349398	2012.0	-0.7349397590361446	2108.0	0.4354545454545454	-479.0	-0.8190909090909091	-901.0	-0.15000000000000002	147.0	95.2542922502112	39935.0	0.9924171750602557	0.11562837521893823	-0.0044458154754055505	0.04145436303224132	1.5228159102855625E12	1.522815910291E12	26.896939618726208	25937.0	722.65625	23680.0	3859.340659340659	2634.0	0.0	0.0	
0.24953588748746897	0.9408354355008256	-0.03597416110944363	0.336948873033348	0.4408155377331143	-147.0	0.26089477244178194	-66.0	0.4284471929655039	60.0	0.3855421686746988	1234.0	9.795180722891567	2015.0	-0.6506024096385542	2101.0	0.4381818181818182	-482.0	-0.8181818181818182	-900.0	-0.15000000000000002	147.0	95.24834031530732	39933.0	0.992226572065975	0.11708178063314198	-0.004476785929342785	0.041931428758393355	1.522815910293375E12	1.522815910305E12	26.896939618726208	25937.0	730.46875	23936.0	3859.340659340659	2634.0	0.0	0.0	
0.2526066168836329	0.9409424434591367	-0.035720939211290804	0.3366768964438094	0.2520992366412211	-155.0	0.3797709923664122	-54.0	0.5604961832061072	51.0	0.3493975903614458	1233.0	9.807228915662652	2018.0	-0.6024096385542169	2097.0	0.4354545454545454	-479.0	-0.8145454545454546	-896.0	-0.15204081632653063	149.0	95.24834031530732	39933.0	0.9920343349630716	0.11852841822189757	-0.00449968693786394	0.04241043675385589	1.5228159103011875E12	1.522815910306E12	26.896939618726208	25937.0	738.28125	24192.0	3847.6190476190473	2626.0	0.0	0.0	
0.25564564412503266	0.9410629797279286	-0.03552579603141551	0.3363605000619403	-0.07162378663650878	-149.0	0.28347940816134193	-33.0	0.1413627367825842	78.0	0.3855421686746988	1236.0	9.771084337349398	2015.0	-0.4819277108433735	2087.0	0.43	-473.0	-0.8154545454545454	-897.0	-0.1479591836734694	145.0	95.24834031530732	39933.0	0.9918417800348648	0.1199620319557394	-0.0045286519293383145	0.042877564973116594	1.522815910309E12	1.522815910315E12	26.896939618726208	25937.0	746.09375	24448.0	3854.945054945055	2631.0	0.0	0.0	
0.25867452057511786	0.9411765104015323	-0.03546276532846962	0.33604935432705507	-0.19288773040402157	-137.0	0.09681623533792592	-25.0	0.09383727425060523	81.0	0.46987951807228917	1236.0	9.771084337349398	2008.0	-0.3253012048192771	2074.0	0.43363636363636365	-477.0	-0.82	-902.0	-0.1489795918367347	146.0	95.25131628236882	39934.0	0.991647589644055	0.1213900914919725	-0.004573879904785041	0.04334262640083956	1.5228159103168125E12	1.522815910331E12	26.896939618726208	25937.0	753.90625	24704.0	3857.8754578754574	2633.0	0.0	0.0	
0.26170390307349534	0.941284533656876	-0.03547675194244406	0.3357451813056548	-0.19056378184493708	-124.0	-0.10282350777154409	-25.0	0.16904258254391596	76.0	0.5060240963855422	1237.0	9.759036144578314	2005.0	-0.28915662650602414	2071.0	0.43454545454545457	-478.0	-0.8109090909090909	-892.0	-0.1469387755102041	144.0	95.25131628236882	39934.0	0.9914510918727188	0.12281773114676313	-0.004628966084357029	0.04380764788646852	1.522815910324625E12	1.522815910336E12	26.896939618726208	25937.0	761.71875	24960.0	3860.8058608058604	2635.0	0.0	0.0	
0.2647174436761511	0.9414124765553755	-0.03543691196843515	0.33539048027038265	-0.31043256997455504	-131.0	0.005270810614322168	-17.0	-0.09251181388585969	93.0	0.49397590361445787	1235.0	9.783132530120483	2006.0	-0.27710843373493976	2070.0	0.4354545454545454	-479.0	-0.8109090909090909	-892.0	-0.1469387755102041	144.0	95.24834031530732	39933.0	0.9912533648050764	0.1242406508190532	-0.004676701356333579	0.044262353203320975	1.5228159103324375E12	1.522815910355E12	26.896939618726208	25937.0	769.53125	25216.0	3846.1538461538457	2625.0	0.0	0.0	
0.2677349114618232	0.941545562887953	-0.035421615035784525	0.33501830128256266	-0.19991019308486785	-137.0	0.09681185451279752	-24.0	-0.13722496632240677	96.0	0.5421686746987953	1237.0	9.759036144578314	2002.0	-0.21686746987951808	2065.0	0.43363636363636365	-477.0	-0.81	-891.0	-0.15000000000000002	147.0	95.24834031530732	39933.0	0.991053125164409	0.12566618935321927	-0.0047276515951394866	0.04471421771309274	1.52281591034025E12	1.522815910357E12	26.896939618726208	25937.0	777.34375	25472.0	3865.201465201465	2638.0	0.0	0.0	
0.27074712140658397	0.9416955887199886	-0.035399909740642034	0.3345986619454176	-0.18231848038345505	-130.0	-0.011184093733357063	-25.0	-0.34936978519438994	110.0	0.5180722891566265	1236.0	9.771084337349398	2004.0	-0.22891566265060243	2066.0	0.43636363636363634	-480.0	-0.8218181818181818	-904.0	-0.1510204081632653	148.0	95.24834031530732	39933.0	0.9908509844155311	0.1270916730410729	-0.004777588223129023	0.04515759047119434	1.5228159103480625E12	1.522815910358E12	26.896939618726208	25937.0	785.15625	25728.0	3850.5494505494503	2628.0	0.0	0.0	
0.27375783976713564	0.9418271591409846	-0.03544826539844709	0.3342230135473146	-0.25655874352899877	-120.0	-0.1637272966570149	-20.0	-0.1468807580942351	97.0	0.5542168674698795	1237.0	9.759036144578314	2001.0	-0.30120481927710846	2072.0	0.4354545454545454	-479.0	-0.8154545454545454	-897.0	-0.1489795918367347	146.0	95.2542922502112	39935.0	0.9906466978331023	0.12851410208804595	-0.004836983043061976	0.045605364069528066	1.522815910355875E12	1.522815910376E12	26.896939618726208	25937.0	792.96875	25984.0	3856.4102564102564	2632.0	0.0	0.0	
0.27675768732831874	0.941981236458454	-0.0354023404967493	0.33379338586550217	-0.31471200555170026	-130.0	-0.009195003469812512	-16.0	-0.3589521165857044	111.0	0.5060240963855422	1237.0	9.759036144578314	2005.0	-0.39759036144578314	2080.0	0.4354545454545454	-479.0	-0.8136363636363636	-895.0	-0.15000000000000002	147.0	95.2572682188344	39936.0	0.9904409161012319	0.12993466589437302	-0.004883315193855068	0.046042670906320596	1.5228159103636875E12	1.522815910386E12	26.896939618726208	25937.0	800.78125	26240.0	3850.5494505494503	2628.0	0.0	0.0	
0.2797525984714131	0.9421463065504033	-0.03532207884606694	0.3333356983574146	-0.32644309117419973	-134.0	0.05197701346599202	-15.0	-0.46178917574406037	118.0	0.5060240963855422	1236.0	9.771084337349398	2005.0	-0.5421686746987953	2092.0	0.43272727272727274	-476.0	-0.7972727272727272	-877.0	-0.14489795918367349	142.0	95.2572682188344	39936.0	0.9902332502264438	0.13135462511190765	-0.004924626241954225	0.04647387076691967	1.5228159103715E12	1.522815910387E12	26.896939618726208	25937.0	808.59375	26496.0	3856.4102564102564	2632.0	0.0	0.0	
0.2827293010108716	0.9423101377773908	-0.03522657508974596	0.3328824006303121	-0.5365564037319767	-146.0	0.2346055979643767	-1.0	-0.5787955894826123	126.0	0.5180722891566265	1235.0	9.783132530120483	2004.0	-0.6385542168674699	2100.0	0.4318181818181818	-475.0	-0.82	-902.0	-0.1510204081632653	148.0	95.26024418823849	39937.0	0.9900246466646878	0.13276611127385038	-0.004963223041612566	0.04690122717710918	1.5228159103793125E12	1.522815910388E12	26.896939618726208	25937.0	816.40625	26752.0	3846.1538461538457	2625.0	0.0	0.0	
0.2856904126295458	0.9424813119250112	-0.03510160738054862	0.33241067045362566	-0.6985991108128513	-151.0	0.30836339233285787	10.0	-0.7251069541145878	136.0	0.5180722891566265	1236.0	9.771084337349398	2004.0	-0.7349397590361446	2108.0	0.4354545454545454	-479.0	-0.82	-902.0	-0.1489795918367347	146.0	95.26024418823849	39937.0	0.9898149598022852	0.13417155929846936	-0.0049970618372384154	0.04732195473575736	1.522815910387125E12	1.522815910395E12	26.896939618726208	25937.0	824.21875	27008.0	3853.4798534798533	2630.0	0.0	0.0	
0.288623655607826	0.9426585021774184	-0.03493081874783932	0.33192587451753497	-1.0574178559575171	-147.0	0.24394291403916363	34.0	-0.8546299369399267	145.0	0.45783132530120485	1234.0	9.795180722891567	2009.0	-0.783132530120482	2112.0	0.4381818181818182	-482.0	-0.8181818181818182	-900.0	-0.1479591836734694	145.0	95.26024418823849	39937.0	0.9896051072316433	0.1355650814316335	-0.005023451522567624	0.04773473967963721	1.5228159103949375E12	1.522815910402E12	26.896939618726208	25937.0	832.03125	27264.0	3849.0842490842488	2627.0	0.0	0.0	
0.2915350863489386	0.9428332550035488	-0.0347177799795684	0.331451548514566	-1.3361241073627188	-159.0	0.42452597882295007	53.0	-0.9217762455881146	150.0	0.43373493975903615	1237.0	9.759036144578314	2011.0	-0.783132530120482	2112.0	0.43	-473.0	-0.82	-902.0	-0.15204081632653063	149.0	95.2542922502112	39935.0	0.9893947102350029	0.13694829864679633	-0.005042822657944755	0.04814395908505055	1.52281591040275E12	1.522815910414E12	26.896939618726208	25937.0	839.84375	27520.0	3854.945054945055	2631.0	0.0	0.0	
0.2944575394266957	0.9430028003890593	-0.03453054088224666	0.33098845932264503	-1.1997726165340268	-162.0	0.4658112717232417	45.0	-0.7440311840181906	139.0	0.49397590361445787	1235.0	9.783132530120483	2006.0	-0.9036144578313253	2122.0	0.4354545454545454	-479.0	-0.8027272727272727	-883.0	-0.1489795918367347	146.0	95.2542922502112	39935.0	0.9891814081459229	0.13833610597334395	-0.005065542287713848	0.04855516289656874	1.5228159104105625E12	1.522815910423E12	26.896939618726208	25937.0	847.65625	27776.0	3854.945054945055	2631.0	0.0	0.0	
0.29733338291224587	0.9431629696630937	-0.03432763533435878	0.33055290969624035	-1.828364805142628	-187.0	0.8425873844917637	87.0	-0.9194053836882283	151.0	0.5662650602409639	1234.0	9.795180722891567	2000.0	-1.036144578313253	2133.0	0.43727272727272726	-481.0	-0.81	-891.0	-0.15000000000000002	147.0	95.2542922502112	39935.0	0.9889694461410029	0.1397009813234906	-0.005084597781057801	0.048961385623945086	1.522815910418375E12	1.522815910436E12	26.896939618726208	25937.0	855.46875	28032.0	3856.4102564102564	2632.0	0.0	0.0	
0.3001611952066643	0.9433177994385753	-0.03401818491636408	0.3301428362956713	-2.4658078880407124	-205.0	1.1086195928753182	130.0	-1.1235687022900762	165.0	0.5060240963855422	1236.0	9.771084337349398	2005.0	-1.0	2130.0	0.4354545454545454	-479.0	-0.8145454545454546	-896.0	-0.1469387755102041	144.0	95.25131628236882	39934.0	0.9887590303692161	0.14104282524763598	-0.005086325004421727	0.04936223867939569	1.5228159104261875E12	1.522815910445E12	26.896939618726208	25937.0	863.28125	28288.0	3847.6190476190473	2626.0	0.0	0.0	
0.3029631108165012	0.94347105762027	-0.033551502535593976	0.32975242244827113	-2.7915322263319426	-225.0	1.402534036357913	153.0	-1.203588573227355	171.0	0.3855421686746988	1236.0	9.771084337349398	2015.0	-0.8795180722891567	2120.0	0.4309090909090909	-474.0	-0.8181818181818182	-900.0	-0.1469387755102041	144.0	95.26322015842341	39938.0	0.9885485919644359	0.14237250645897795	-0.005063018598054175	0.049760592564754326	1.522815910434E12	1.522815910446E12	26.896939618726208	25937.0	871.09375	28544.0	3859.340659340659	2634.0	0.0	0.0	
0.3057482900908713	0.9436061854354673	-0.03297235249486722	0.3294240288426002	-3.0836578906371708	-245.0	1.6935659760087238	174.0	-0.9622994235862282	156.0	0.3132530120481928	1235.0	9.783132530120483	2021.0	-0.7590361445783133	2110.0	0.43363636363636365	-477.0	-0.8145454545454546	-896.0	-0.1489795918367347	146.0	95.26322015842341	39938.0	0.9883374876867057	0.14369176754662683	-0.005021009488159953	0.050164487799408825	1.5228159104418125E12	1.522815910453E12	26.896939618726208	25937.0	878.90625	28800.0	3847.6190476190473	2626.0	0.0	0.0	
0.3084970248099978	0.9437530851688185	-0.032133594474256746	0.32908592546704746	-3.4952579227388383	-284.0	2.271879096306577	203.0	-1.1815868609761742	171.0	0.1566265060240964	1235.0	9.783132530120483	2034.0	-0.5542168674698795	2093.0	0.43636363636363634	-480.0	-0.81	-891.0	-0.1489795918367347	146.0	95.2572682188344	39936.0	0.9881272665112087	0.1449959376314756	-0.004936927606897323	0.050559964332069954	1.522815910449625E12	1.522815910459E12	26.896939618726208	25937.0	886.71875	29056.0	3856.4102564102564	2632.0	0.0	0.0	
0.3112331122607338	0.9438994416996965	-0.031233899127921013	0.3287526235701421	-3.643511450381679	-273.0	2.081221374045801	215.0	-1.1697709923664121	171.0	0.024096385542168676	1232.0	9.819277108433736	2045.0	-0.3253012048192771	2074.0	0.43727272727272726	-481.0	-0.81	-891.0	-0.1489795918367347	146.0	95.2542922502112	39935.0	0.9879161589915779	0.14629425189096643	-0.0048409181155240665	0.050953117458975926	1.5228159104574375E12	1.522815910466E12	26.896939618726208	25937.0	894.53125	29312.0	3849.0842490842488	2627.0	0.0	0.0	
0.31398568797295	0.9440207427103691	-0.03022070983980767	0.3284989285056277	-3.439498148288111	-300.0	2.4728289622855413	204.0	-0.8528455899025017	151.0	-0.04819277108433735	1234.0	9.795180722891567	2051.0	-0.03614457831325302	2050.0	0.43	-473.0	-0.8172727272727273	-899.0	-0.15204081632653063	149.0	95.2542922502112	39935.0	0.9877019136181128	0.1475964576885416	-0.004724970034432139	0.05136039496622342	1.52281591046525E12	1.522815910505E12	26.896939618726208	25937.0	902.34375	29568.0	3854.945054945055	2631.0	0.0	0.0	
0.31675436529249207	0.9441425775111202	-0.029147999438920016	0.3282456206247979	-3.176769944619069	-305.0	2.524921418949259	189.0	-0.7528813051938334	145.0	-0.0963855421686747	1233.0	9.807228915662652	2055.0	0.07228915662650603	2041.0	0.43363636363636365	-477.0	-0.8036363636363636	-884.0	-0.1469387755102041	144.0	95.2542922502112	39935.0	0.9874845276635176	0.1489063038603879	-0.004597103196866597	0.051769556092307545	1.5228159104730625E12	1.522815910507E12	26.896939618726208	25937.0	910.15625	29824.0	3837.362637362637	2619.0	0.0	0.0	
0.31955625254910347	0.9442640500973611	-0.028155104970197683	0.32798276442193913	-2.7187546774434965	-292.0	2.3264481365065106	159.0	-0.5391408471785663	131.0	-0.07228915662650603	1234.0	9.795180722891567	2053.0	0.060240963855421686	2042.0	0.4381818181818182	-482.0	-0.81	-891.0	-0.15204081632653063	149.0	95.2572682188344	39936.0	0.9872626075997826	0.15023161992645143	-0.004479453632102119	0.05218178326494918	1.522815910480875E12	1.522815910509E12	26.896939618726208	25937.0	917.96875	30080.0	3819.7802197802193	2607.0	0.0	0.0	
0.3223407073449314	0.9443801192101409	-0.027622742083748122	0.32769372066064223	-3.039365364466397	-172.0	0.4943870678042208	180.0	-0.5238736716060471	130.0	0.0	1234.0	9.795180722891567	2047.0	0.060240963855421686	2042.0	0.43727272727272726	-481.0	-0.81	-891.0	-0.15000000000000002	147.0	95.2572682188344	39936.0	0.9870401486537814	0.15154798524712876	-0.004432718165746994	0.05258615904133115	1.5228159104886875E12	1.52281591051E12	26.896939618726208	25937.0	925.78125	30336.0	3847.6190476190473	2626.0	0.0	0.0	
0.3251420798753715	0.9445010129687966	-0.027111470799273243	0.3273878504954286	-2.7645562041610536	-173.0	0.5096542433767399	162.0	-0.4780721448884899	127.0	0.03614457831325302	1236.0	9.771084337349398	2044.0	0.08433734939759037	2040.0	0.44	-484.0	-0.8027272727272727	-883.0	-0.15000000000000002	147.0	95.2572682188344	39936.0	0.986814407448914	0.15287304074958116	-0.0043881509107659405	0.052989647996660116	1.5228159104965E12	1.522815910511E12	26.896939618726208	25937.0	933.59375	30592.0	3843.223443223443	2623.0	0.0	0.0	
0.3279444489179135	0.9445968623866524	-0.02665559778665263	0.32714866143074045	-2.82562490645113	-166.0	0.4027840143691063	166.0	-0.20326298458314643	109.0	0.03614457831325302	1235.0	9.783132530120483	2044.0	0.04819277108433735	2043.0	0.43272727272727274	-476.0	-0.8181818181818182	-900.0	-0.15204081632653063	149.0	95.25131628236882	39934.0	0.986586648857042	0.15419450668150744	-0.004351217873653253	0.05340323313521662	1.5228159105043125E12	1.522815910524E12	26.896939618726208	25937.0	941.40625	30848.0	3859.340659340659	2634.0	0.0	0.0	
0.33075278867004804	0.9446978073519555	-0.026232443223300025	0.3268912842321429	-2.7187546774434965	-159.0	0.2959137853614727	159.0	-0.15746145786558918	106.0	0.060240963855421686	1233.0	9.807228915662652	2042.0	0.060240963855421686	2042.0	0.4354545454545454	-479.0	-0.8036363636363636	-884.0	-0.1510204081632653	148.0	95.25131628236882	39934.0	0.9863564618266354	0.155519555495971	-0.004318479282911052	0.053814020550965284	1.522815910512125E12	1.522815910526E12	26.896939618726208	25937.0	949.21875	31104.0	3857.8754578754574	2633.0	0.0	0.0	
0.3335501808640464	0.9447918262032119	-0.025928316354744657	0.3266437318403774	-2.8561592575961683	-143.0	0.051638976201167384	168.0	-0.2185301601556655	110.0	0.13253012048192772	1235.0	9.783132530120483	2036.0	0.18072289156626506	2032.0	0.43636363636363634	-480.0	-0.8190909090909091	-901.0	-0.15408163265306124	151.0	95.25131628236882	39934.0	0.9861252386831872	0.1568383276751765	-0.004304179676123087	0.054223856755090796	1.5228159105199375E12	1.522815910527E12	26.896939618726208	25937.0	957.03125	31360.0	3847.6190476190473	2626.0	0.0	0.0	
0.33635068542961033	0.9448823455871375	-0.02570609543456259	0.3263993714075793	-2.779823379733573	-130.0	-0.1468343062415807	163.0	-0.24906451130070367	112.0	0.18072289156626506	1236.0	9.771084337349398	2032.0	0.26506024096385544	2025.0	0.4290909090909091	-472.0	-0.8172727272727273	-899.0	-0.15204081632653063	149.0	95.2572682188344	39936.0	0.9858918258542196	0.15815791630135598	-0.004302781726382976	0.05463393903483031	1.52281591052775E12	1.522815910544E12	26.896939618726208	25937.0	964.84375	31616.0	3860.8058608058604	2635.0	0.0	0.0	
0.3391798681735886	0.9449563317698734	-0.02558493099621417	0.326194638757193	-2.428678341565634	-127.0	-0.19263583295913794	140.0	0.05627900014967799	92.0	0.30120481927710846	1235.0	9.783132530120483	2022.0	0.1927710843373494	2031.0	0.4318181818181818	-475.0	-0.8181818181818182	-900.0	-0.15000000000000002	147.0	95.2572682188344	39936.0	0.9856540599570494	0.15948800998457216	-0.004318178092458692	0.05505453749971869	1.5228159105355625E12	1.522815910545E12	26.896939618726208	25937.0	972.65625	31872.0	3853.4798534798533	2630.0	0.0	0.0	
0.3420206689027541	0.9450382037476923	-0.025565022145088757	0.32595892854783043	-2.245472234695405	-125.0	-0.2231701841041761	128.0	0.10208052686723525	89.0	0.44578313253012053	1235.0	9.783132530120483	2010.0	0.024096385542168676	2045.0	0.4390909090909091	-483.0	-0.8036363636363636	-884.0	-0.1510204081632653	148.0	95.24536434902667	39932.0	0.9854133331523646	0.16082474242871111	-0.004350605176979582	0.055471049231824755	1.522815910543375E12	1.522815910555E12	26.896939618726208	25937.0	980.46875	32128.0	3852.014652014652	2629.0	0.0	0.0	
0.3448413232455831	0.9451405357334769	-0.025487348380840172	0.3256681789581819	-2.398143990420596	-140.0	0.005837449483610136	138.0	-0.2643316868732228	113.0	0.43373493975903615	1235.0	9.783132530120483	2011.0	-0.12048192771084337	2057.0	0.43727272727272726	-481.0	-0.8127272727272727	-894.0	-0.15306122448979592	150.0	95.2542922502112	39935.0	0.985172346523704	0.16215551066313236	-0.00437280365817444	0.055874113816009374	1.5228159105511875E12	1.522815910556E12	26.896939618726208	25937.0	988.28125	32384.0	3847.6190476190473	2626.0	0.0	0.0	
0.3476507053093515	0.9452562767005254	-0.025246998726825745	0.3253508266679955	-2.474479868283191	-163.0	0.35698248765154905	143.0	-0.4017362670258945	122.0	0.3132530120481928	1236.0	9.771084337349398	2021.0	-0.21686746987951808	2065.0	0.43	-473.0	-0.8018181818181818	-882.0	-0.1510204081632653	148.0	95.2542922502112	39935.0	0.9849303751585439	0.16348331259631105	-0.004366501536899053	0.05626985211385537	1.522815910559E12	1.522815910559E12	26.896939618726208	25937.0	996.09375	32640.0	3860.8058608058604	2635.0	0.0	0.0	
0.35042552879428585	0.9453745669061521	-0.025012174379593258	0.3250251057684581	-2.947762311031283	-146.0	0.09744050291872464	174.0	-0.49333932046100903	128.0	0.24096385542168675	1235.0	9.783132530120483	2027.0	-0.30120481927710846	2072.0	0.43363636363636365	-477.0	-0.8154545454545454	-897.0	-0.15408163265306124	151.0	95.25131628236882	39934.0	0.9846894726036407	0.16479547135986358	-0.004360063419211232	0.05665761210838642	1.5228159105668125E12	1.522815910573E12	26.896939618726208	25937.0	1003.90625	32896.0	3846.1538461538457	2625.0	0.0	0.0	
0.35320236335539806	0.9454867235741707	-0.024713129747048198	0.3247215988552125	-2.9324951354587636	-171.0	0.4791198922317017	173.0	-0.3254003891632991	117.0	0.2530120481927711	1236.0	9.771084337349398	2026.0	-0.3855421686746988	2079.0	0.43727272727272726	-481.0	-0.8090909090909091	-890.0	-0.15510204081632656	152.0	95.25464283569447	39934.0	0.984446497952007	0.16610749448934184	-0.004341717298529756	0.0570485971378964	1.522815910574625E12	1.522815910576E12	26.909065030710586	25939.0	1011.71875	33152.0	3856.4102564102564	2632.0	0.0	0.0	
0.355942437530527	0.9455995349116557	-0.024355765795975037	0.32441996894050557	-3.4057775782068553	-168.0	0.4333183655141445	204.0	-0.4780721448884899	127.0	0.1566265060240964	1234.0	9.795180722891567	2034.0	-0.3493975903614458	2076.0	0.4354545454545454	-479.0	-0.8127272727272727	-894.0	-0.15306122448979592	150.0	95.25464283569447	39934.0	0.9842048796513384	0.16740251416982405	-0.00431177922391697	0.05743310613261961	1.5228159105824375E12	1.522815910593E12	26.909065030710586	25939.0	1019.53125	33408.0	3850.5494505494503	2628.0	0.0	0.0	
0.35867673953041546	0.9457059692630553	-0.02389918126962412	0.3241435620752934	-3.4515791049244124	-183.0	0.6623259991019307	207.0	-0.43227061817093265	124.0	0.07228915662650603	1234.0	9.795180722891567	2041.0	-0.1566265060240964	2060.0	0.43363636363636365	-477.0	-0.8163636363636364	-898.0	-0.15306122448979592	150.0	95.2516667898842	39933.0	0.9839619288171525	0.1686937007130996	-0.004263102341976077	0.05782027271268882	1.52281591059025E12	1.522815910596E12	26.909065030710586	25939.0	1027.34375	33664.0	3859.340659340659	2634.0	0.0	0.0	
0.36141554009255394	0.9457927718214332	-0.023456675126783642	0.32392254809187726	-3.4515791049244124	-179.0	0.6012572968118544	207.0	-0.09639275557551284	102.0	0.060240963855421686	1234.0	9.795180722891567	2042.0	0.07228915662650603	2041.0	0.43363636363636365	-477.0	-0.8118181818181818	-893.0	-0.15510204081632656	152.0	95.25464283569447	39934.0	0.9837167346066807	0.16998342272330355	-0.004215771194868109	0.058217259702537535	1.5228159105980625E12	1.52281591061E12	26.909065030710586	25939.0	1035.15625	33920.0	3843.223443223443	2623.0	0.0	0.0	
0.3641604894577173	0.9458887562151485	-0.023062820049754375	0.3236704608040645	-3.298907349199222	-163.0	0.35698248765154905	197.0	-0.15746145786558918	106.0	0.07228915662650603	1235.0	9.783132530120483	2041.0	0.2530120481927711	2026.0	0.43454545454545457	-478.0	-0.8036363636363636	-884.0	-0.15714285714285717	154.0	95.25464283569447	39934.0	0.9834691389795492	0.17127758238545404	-0.004176119057508091	0.05860889417687127	1.522815910605875E12	1.522815910612E12	26.909065030710586	25939.0	1042.96875	34176.0	3857.8754578754574	2633.0	0.0	0.0	
0.36692004771117426	0.9459895924405841	-0.02265386796141783	0.3234045350029617	-2.99356383774884	-160.0	0.3111809609339918	177.0	-0.27959886244574184	114.0	0.04819277108433735	1235.0	9.783132530120483	2043.0	0.4096385542168675	2013.0	0.43272727272727274	-476.0	-0.8109090909090909	-892.0	-0.15408163265306124	151.0	95.25464283569447	39934.0	0.9832183582622819	0.17257935760145987	-0.004132804431688646	0.05899953587461426	1.5228159106136875E12	1.522815910641E12	26.909065030710586	25939.0	1050.78125	34432.0	3850.5494505494503	2628.0	0.0	0.0	
0.36971282070681494	0.946085033346592	-0.02217895532503623	0.32315817120763035	-2.5355485705732677	-155.0	0.2348450830713964	147.0	0.07154617572219707	91.0	-0.07228915662650603	1235.0	9.783132530120483	2053.0	0.45783132530120485	2009.0	0.43363636363636365	-477.0	-0.8145454545454546	-896.0	-0.15510204081632656	152.0	95.24571470060633	39931.0	0.9829626533147987	0.1738955305741669	-0.0040766115812921845	0.0593982143896165	1.5228159106215E12	1.522815910642E12	26.909065030710586	25939.0	1058.59375	34688.0	3859.340659340659	2634.0	0.0	0.0	
0.3725078776946752	0.9461990132385261	-0.0217277546333524	0.32285497057508245	-2.413411165993115	-132.0	-0.11629995509654253	139.0	-0.05059122885795559	99.0	-0.13253012048192772	1235.0	9.783132530120483	2058.0	0.45783132530120485	2009.0	0.43	-473.0	-0.8090909090909091	-890.0	-0.15816326530612246	155.0	95.24571470060633	39931.0	0.9827048202204396	0.17521612134842868	-0.004023522366014815	0.05978593817024676	1.5228159106293125E12	1.522815910644E12	26.909065030710586	25939.0	1066.40625	34944.0	3846.1538461538457	2625.0	0.0	0.0	
0.37532215677797065	0.9463118312050873	-0.02130051142806283	0.3225526411830632	-2.1538691812602906	-125.0	-0.2231701841041761	122.0	0.1631492291573116	85.0	-0.12048192771084337	1235.0	9.783132530120483	2057.0	0.42168674698795183	2012.0	0.4354545454545454	-479.0	-0.8018181818181818	-882.0	-0.15816326530612246	155.0	95.2516667898842	39933.0	0.9824432748128933	0.17654540159833096	-0.003973856418479252	0.060175920554378995	1.522815910637125E12	1.522815910645E12	26.909065030710586	25939.0	1074.21875	35200.0	3856.4102564102564	2632.0	0.0	0.0	
0.3781511073153846	0.9464156368619698	-0.020868569239374846	0.3222761938478449	-1.9553958988175424	-132.0	-0.11629995509654253	109.0	0.3310881604550215	74.0	-0.12048192771084337	1234.0	9.795180722891567	2057.0	0.3614457831325301	2017.0	0.43454545454545457	-478.0	-0.8154545454545454	-897.0	-0.15918367346938778	156.0	95.25761888228566	39935.0	0.9821784053961858	0.1778797693227197	-0.003922268544403386	0.060572134257984085	1.5228159106449375E12	1.522815910654E12	26.909065030710586	25939.0	1082.03125	35456.0	3847.6190476190473	2626.0	0.0	0.0	
0.3809964769325716	0.9465079787063633	-0.02046975566673645	0.32203048822765434	-1.7874569675198324	-126.0	-0.20790300853165702	98.0	0.6669660230504413	52.0	-0.10843373493975904	1234.0	9.795180722891567	2056.0	0.26506024096385544	2025.0	0.43454545454545457	-478.0	-0.81	-891.0	-0.15816326530612246	155.0	95.25761888228566	39935.0	0.9819100164678523	0.17921952885893164	-0.003875910239514275	0.0609758751925711	1.52281591065275E12	1.522815910662E12	26.909065030710586	25939.0	1089.84375	35712.0	3865.201465201465	2638.0	0.0	0.0	
0.3838425218874595	0.9466093024596424	-0.02010867697851251	0.32175529460607877	-1.7263882652297562	-125.0	-0.2231701841041761	94.0	0.590630145187846	57.0	-0.04819277108433735	1235.0	9.783132530120483	2051.0	0.22891566265060243	2028.0	0.43727272727272726	-481.0	-0.8009090909090909	-881.0	-0.15918367346938778	156.0	95.25464283569447	39934.0	0.9816395757138289	0.18056121066770436	-0.0038356342481863696	0.06137328820016994	1.5228159106605625E12	1.52281591067E12	26.909065030710586	25939.0	1097.65625	35968.0	3854.945054945055	2631.0	0.0	0.0	
0.3866986277331682	0.9467043027007719	-0.019757288755529522	0.32149745378287703	-1.5889836850770844	-127.0	-0.19263583295913794	85.0	0.7127675497679986	49.0	-0.03614457831325302	1233.0	9.807228915662652	2050.0	0.12048192771084337	2037.0	0.43636363636363634	-480.0	-0.8072727272727273	-888.0	-0.15714285714285717	154.0	95.26059492965771	39936.0	0.9813661805749767	0.18190626851268907	-0.003796301192667174	0.06177472943466552	1.522815910668375E12	1.522815910681E12	26.909065030710586	25939.0	1105.46875	36224.0	3821.245421245421	2608.0	0.0	0.0	
0.38954530368453566	0.9467937175868801	-0.019317549589334106	0.3212607797660206	-1.695853914084718	-152.0	0.18904355635383913	92.0	0.7433019009130367	47.0	-0.07228915662650603	1234.0	9.795180722891567	2053.0	0.08433734939759037	2040.0	0.44	-484.0	-0.8145454545454546	-896.0	-0.15612244897959185	153.0	95.26059492965771	39936.0	0.9810916966601556	0.18324576095757147	-0.0037387859769024336	0.06217793270121186	1.5228159106761875E12	1.522815910682E12	26.909065030710586	25939.0	1113.28125	36480.0	3852.014652014652	2629.0	0.0	0.0	
0.39239062239125283	0.9468792792824166	-0.01884915316400159	0.3210363529113356	-1.711121089657237	-148.0	0.1279748540637628	93.0	0.8959736566382276	37.0	-0.14457831325301207	1233.0	9.807228915662652	2059.0	0.12048192771084337	2037.0	0.4381818181818182	-482.0	-0.8127272727272727	-894.0	-0.15714285714285717	154.0	95.2516667898842	39933.0	0.9808153574510581	0.18458375050315062	-0.003674436077486516	0.06258252278277286	1.522815910684E12	1.522815910685E12	26.909065030710586	25939.0	1121.09375	36736.0	3862.271062271062	2636.0	0.0	0.0	
0.3952437213962411	0.9469521587137139	-0.01839782208854455	0.3208475171321033	-1.6347852117946418	-142.0	0.0363718006286483	88.0	1.140248465798533	21.0	-0.1566265060240964	1234.0	9.795180722891567	2060.0	0.18072289156626506	2032.0	0.43727272727272726	-481.0	-0.8145454545454546	-896.0	-0.15612244897959185	153.0	95.24571470060633	39931.0	0.9805362693347788	0.18592272736228327	-0.003612192262040539	0.06299457148251987	1.5228159106918125E12	1.5228159107E12	26.909065030710586	25939.0	1128.90625	36992.0	3849.0842490842488	2627.0	0.0	0.0	
0.39809469616348275	0.947032598823182	-0.017940431590568216	0.32063592699596505	-1.6195180362221226	-143.0	0.051638976201167384	87.0	1.124981290226014	22.0	-0.1566265060240964	1234.0	9.795180722891567	2060.0	0.14457831325301207	2035.0	0.44272727272727275	-487.0	-0.81	-891.0	-0.15816326530612246	155.0	95.24571470060633	39931.0	0.9802553958041358	0.1872620387678558	-0.0035474616187444515	0.06340113050606429	1.522815910699625E12	1.522815910709E12	26.909065030710586	25939.0	1136.71875	37248.0	3819.7802197802193	2607.0	0.0	0.0	
0.40094470491462303	0.9471043301097075	-0.017546519422904566	0.3204457950162311	-1.6653195629396798	-141.0	0.021104625056129218	90.0	1.2471186948061666	14.0	-0.08433734939759037	1236.0	9.771084337349398	2054.0	0.08433734939759037	2040.0	0.4409090909090909	-485.0	-0.81	-891.0	-0.15816326530612246	155.0	95.2486907448548	39932.0	0.979972626563459	0.1885990119500362	-0.0034940778128831848	0.0638110907133161	1.5228159107074375E12	1.522815910717E12	26.909065030710586	25939.0	1144.53125	37504.0	3844.688644688644	2624.0	0.0	0.0	
0.40380531930017843	0.9471611429319315	-0.01726276122770831	0.32029325062303865	-1.5737165095045653	-128.0	-0.17736865738661886	84.0	1.4608591528214336	0.0	0.024096385542168676	1234.0	9.795180722891567	2045.0	0.07228915662650603	2041.0	0.4381818181818182	-482.0	-0.8072727272727273	-888.0	-0.15408163265306124	151.0	95.2516667898842	39933.0	0.9796868039741857	0.18993773151867002	-0.003461765436438522	0.06422959165719577	1.52281591071525E12	1.52281591072E12	26.909065030710586	25939.0	1152.34375	37760.0	3840.29304029304	2621.0	0.0	0.0	
0.4066624743436208	0.9472132481443479	-0.017043653248707744	0.3201508650992252	-1.6195180362221226	-127.0	-0.19263583295913794	87.0	1.4913935039664719	-2.0	0.0963855421686747	1234.0	9.795180722891567	2039.0	0.07228915662650603	2041.0	0.43272727272727274	-476.0	-0.8136363636363636	-895.0	-0.15816326530612246	155.0	95.2516667898842	39933.0	0.97939932644212	0.19127366648944574	-0.003441676996855395	0.06464904277601993	1.5228159107230625E12	1.522815910737E12	26.909065030710586	25939.0	1160.15625	38016.0	3849.0842490842488	2627.0	0.0	0.0	
0.4095217426693259	0.9472685666977972	-0.016870523718650204	0.3199963249410153	-1.5584493339320462	-121.0	-0.28423888639425243	83.0	1.4913935039664719	-2.0	0.1566265060240964	1235.0	9.783132530120483	2034.0	0.08433734939759037	2040.0	0.43636363636363634	-480.0	-0.8072727272727273	-888.0	-0.15816326530612246	155.0	95.25464283569447	39934.0	0.9791096352697093	0.192610990296725	-0.0034303347482554643	0.06506582315199384	1.522815910730875E12	1.52281591074E12	26.909065030710586	25939.0	1167.96875	38272.0	3818.3150183150183	2606.0	0.0	0.0	
0.4123772442081226	0.9473078056302545	-0.0167493323734159	0.3198865130902396	-1.6500523873671606	-120.0	-0.29950606196677154	89.0	1.6593324352641818	-13.0	0.22891566265060243	1236.0	9.771084337349398	2028.0	0.1566265060240964	2034.0	0.4381818181818182	-482.0	-0.8118181818181818	-893.0	-0.15612244897959185	153.0	95.2516667898842	39933.0	0.9788183285309412	0.19394303691752826	-0.0034291033680231777	0.06549060553386232	1.5228159107386875E12	1.522815910751E12	26.909065030710586	25939.0	1175.78125	38528.0	3847.6190476190473	2626.0	0.0	0.0	
0.4152386229787609	0.9473521231483917	-0.016600386301397266	0.3197630090252443	-1.4821134560694509	-139.0	-0.009429726088908947	78.0	1.5371950306840292	-5.0	0.26506024096385544	1237.0	9.759036144578314	2025.0	0.16867469879518074	2033.0	0.43727272727272726	-481.0	-0.8163636363636364	-898.0	-0.15714285714285717	154.0	95.2516667898842	39933.0	0.9785244207631112	0.19527856882223385	-0.0034218529727465443	0.06591304462085404	1.5228159107465E12	1.522815910752E12	26.909065030710586	25939.0	1183.59375	38784.0	3857.8754578754574	2633.0	0.0	0.0	
0.4181117368320522	0.9473914638316921	-0.016479314031476778	0.3196526966379148	-1.32944170034426	-132.0	-0.11629995509654253	68.0	1.720401137554258	-17.0	0.27710843373493976	1235.0	9.783132530120483	2024.0	0.1566265060240964	2034.0	0.43363636363636365	-477.0	-0.8118181818181818	-893.0	-0.15612244897959185	153.0	95.2516667898842	39933.0	0.9782272923696045	0.1966182300872557	-0.003420057791967466	0.06633957540779653	1.5228159107543125E12	1.522815910755E12	26.909065030710586	25939.0	1191.40625	39040.0	3838.8278388278386	2620.0	0.0	0.0	
0.4209843121789207	0.9474346959598429	-0.01636773601464501	0.3195302710373979	-1.314174524771741	-130.0	-0.1468343062415807	67.0	1.7662026642718154	-20.0	0.28915662650602414	1234.0	9.795180722891567	2023.0	0.12048192771084337	2037.0	0.4354545454545454	-479.0	-0.8063636363636364	-887.0	-0.15816326530612246	155.0	95.25761888228566	39935.0	0.9779282014710163	0.1979581597763184	-0.003419894706179339	0.06676304416243645	1.522815910762125E12	1.522815910793E12	26.909065030710586	25939.0	1199.21875	39296.0	3852.014652014652	2629.0	0.0	0.0	
0.4238663977920158	0.9474888824634529	-0.016298408394000763	0.3193731038956966	-1.1004340667564738	-121.0	-0.28423888639425243	53.0	1.6440652596916627	-12.0	0.3373493975903615	1235.0	9.783132530120483	2019.0	0.07228915662650603	2041.0	0.43727272727272726	-481.0	-0.8072727272727273	-888.0	-0.15816326530612246	155.0	95.25761888228566	39935.0	0.9776260929505725	0.19930451137798047	-0.003428374075228682	0.0671802082296792	1.5228159107699375E12	1.522815910801E12	26.909065030710586	25939.0	1207.03125	39552.0	3847.6190476190473	2626.0	0.0	0.0	
0.4267441878816821	0.9475357471782003	-0.016325176989590403	0.31923266815240675	-1.1767699446190691	-112.0	-0.4216434665469242	58.0	1.705133961981739	-16.0	0.45783132530120485	1235.0	9.783132530120483	2009.0	-0.012048192771084338	2048.0	0.4390909090909091	-483.0	-0.8118181818181818	-893.0	-0.15714285714285717	154.0	95.2516667898842	39933.0	0.977322409093094	0.2006470623958779	-0.0034569659411889855	0.0675996628901139	1.52281591077775E12	1.522815910802E12	26.909065030710586	25939.0	1214.84375	39808.0	3860.8058608058604	2635.0	0.0	0.0	
0.42961126719220893	0.9475872539496383	-0.01642935122911089	0.31907439974145985	-1.2531058224816647	-104.0	-0.5437808711270768	63.0	1.4913935039664719	-2.0	0.5542168674698795	1235.0	9.783132530120483	2001.0	-0.07228915662650603	2053.0	0.43272727272727274	-476.0	-0.8172727272727273	-899.0	-0.15714285714285717	154.0	95.25761888228566	39935.0	0.9770178433247674	0.20198536124384422	-0.003502039974875314	0.06801311185520313	1.5228159107855625E12	1.522815910803E12	26.909065030710586	25939.0	1222.65625	40064.0	3854.945054945055	2631.0	0.0	0.0	
0.4324614566263342	0.9476355720990186	-0.01651511364609533	0.31892643903230206	-1.4668462804969318	-127.0	-0.19263583295913794	77.0	1.4761263283939527	-1.0	0.6265060240963856	1236.0	9.771084337349398	1995.0	-0.07228915662650603	2053.0	0.4354545454545454	-479.0	-0.8072727272727273	-888.0	-0.15816326530612246	155.0	95.25761888228566	39935.0	0.9767130816434382	0.2033148887828946	-0.003543311999944514	0.06842555871784191	1.522815910793375E12	1.522815910805E12	26.909065030710586	25939.0	1230.46875	40320.0	3856.4102564102564	2632.0	0.0	0.0	
0.43530727942122777	0.9476856206960069	-0.01663380765642707	0.31877151812681553	-1.4668462804969318	-128.0	-0.17736865738661886	77.0	1.3845232749588383	5.0	0.710843373493976	1236.0	9.771084337349398	1988.0	0.0	2047.0	0.44181818181818183	-486.0	-0.8045454545454546	-885.0	-0.15714285714285717	154.0	95.25761888228566	39935.0	0.9764068078274335	0.2046424913114503	-0.003591891408362544	0.0688352721662009	1.5228159108011875E12	1.522815910806E12	26.909065030710586	25939.0	1238.28125	40576.0	3849.0842490842488	2627.0	0.0	0.0	
0.43814757959665956	0.9477464201562029	-0.01671856835993466	0.3185862717586789	-1.4057775782068553	-144.0	0.06690615177368647	73.0	1.0639125879359375	26.0	0.7349397590361446	1238.0	9.74698795180723	1986.0	0.024096385542168676	2045.0	0.4381818181818182	-482.0	-0.8072727272727273	-888.0	-0.15612244897959185	153.0	95.25464283569447	39934.0	0.9760991572106426	0.2059696005698195	-0.003633373626067003	0.0692369664982201	1.522815910809E12	1.522815910813E12	26.909065030710586	25939.0	1246.09375	40832.0	3857.8754578754574	2633.0	0.0	0.0	
0.44098955856097644	0.9477998106652029	-0.016836648845188967	0.3184211773087188	-1.3752432270618173	-146.0	0.09744050291872464	71.0	1.140248465798533	21.0	0.783132530120482	1237.0	9.759036144578314	1982.0	-0.024096385542168676	2049.0	0.4290909090909091	-472.0	-0.8145454545454546	-896.0	-0.15714285714285717	154.0	95.25464283569447	39934.0	0.975789354386087	0.2072956188773232	-0.003682384721868728	0.06964267588060628	1.5228159108168125E12	1.522815910824E12	26.909065030710586	25939.0	1253.90625	41088.0	3850.5494505494503	2628.0	0.0	0.0	
0.4438175750562229	0.9478836013004468	-0.01692965572704675	0.3181667253856979	-1.3599760514892982	-149.0	0.14324202963628188	70.0	0.5600957940428077	59.0	0.8072289156626506	1236.0	9.771084337349398	1980.0	-0.060240963855421686	2052.0	0.43636363636363634	-480.0	-0.8109090909090909	-892.0	-0.15714285714285717	154.0	95.2516667898842	39933.0	0.9754791177748386	0.20862160257589288	-0.0037260818775523333	0.07002595260137773	1.522815910824625E12	1.522815910827E12	26.909065030710586	25939.0	1261.71875	41344.0	3856.4102564102564	2632.0	0.0	0.0	
0.44663677615314945	0.9479699808354246	-0.01697005198495312	0.31790711343175765	-1.4515791049244127	-158.0	0.2806466097889536	76.0	0.5600957940428077	59.0	0.7590361445783133	1236.0	9.771084337349398	1984.0	-0.060240963855421686	2052.0	0.4354545454545454	-479.0	-0.8054545454545454	-886.0	-0.15816326530612246	155.0	95.25761888228566	39935.0	0.9751679069407149	0.20994389906285096	-0.003758303483281772	0.07040587812164731	1.5228159108324375E12	1.522815910841E12	26.909065030710586	25939.0	1269.53125	41600.0	3850.5494505494503	2628.0	0.0	0.0	
0.44945495701722765	0.9480678067344758	-0.016951134250668964	0.3176162667139367	-1.3447088759167791	-169.0	0.44858554108666354	69.0	0.3005538093099833	76.0	0.7228915662650602	1236.0	9.771084337349398	1987.0	-0.08433734939759037	2054.0	0.43636363636363634	-480.0	-0.8127272727272727	-894.0	-0.15612244897959185	153.0	95.25761888228566	39935.0	0.9748548721487503	0.21126809512830036	-0.0037774026477474447	0.07077783168436266	1.52281591084025E12	1.522815910845E12	26.909065030710586	25939.0	1277.34375	41856.0	3860.8058608058604	2635.0	0.0	0.0	
0.4522548900630538	0.9481761914559783	-0.016888492135148824	0.3172959009968942	-1.512647807214489	-173.0	0.5096542433767399	80.0	0.10208052686723525	89.0	0.6626506024096386	1236.0	9.771084337349398	1992.0	-0.07228915662650603	2053.0	0.43272727272727274	-476.0	-0.8145454545454546	-896.0	-0.16020408163265307	157.0	95.25761888228566	39935.0	0.9745419474166743	0.21258607708434707	-0.0037864885484712413	0.0711394058147523	1.5228159108480625E12	1.522815910859E12	26.909065030710586	25939.0	1285.15625	42112.0	3849.0842490842488	2627.0	0.0	0.0	
0.455027630415188	0.9482879286501974	-0.016796596525845472	0.3169666839298182	-1.8332584942373897	-169.0	0.44858554108666354	101.0	-0.06585840443047468	100.0	0.6144578313253012	1236.0	9.771084337349398	1996.0	0.012048192771084338	2046.0	0.43363636363636365	-477.0	-0.8072727272727273	-888.0	-0.15612244897959185	153.0	95.2516667898842	39933.0	0.9742301795031523	0.21389213337585272	-0.0037885749209950956	0.07149377123393409	1.522815910855875E12	1.522815910862E12	26.909065030710586	25939.0	1292.96875	42368.0	3821.245421245421	2608.0	0.0	0.0	
0.45781478799302733	0.9484129085670957	-0.01661340793131399	0.3166021944652397	-1.512647807214489	-184.0	0.6775931746744498	80.0	-0.17272863343810826	107.0	0.5301204819277109	1236.0	9.771084337349398	2003.0	0.08433734939759037	2040.0	0.43454545454545457	-478.0	-0.8054545454545454	-886.0	-0.15918367346938778	156.0	95.2516667898842	39933.0	0.9739149033911769	0.21520774366645873	-0.0037698074364153344	0.07184132912494345	1.5228159108636875E12	1.522815910876E12	26.909065030710586	25939.0	1300.78125	42624.0	3846.1538461538457	2625.0	0.0	0.0	
0.46059855150096046	0.9485325526153389	-0.01637354949721149	0.3162560726782845	-1.543182158359527	-191.0	0.7844634036820833	82.0	-0.11165993114803192	103.0	0.45783132530120485	1234.0	9.795180722891567	2009.0	0.08433734939759037	2040.0	0.43636363636363634	-480.0	-0.8154545454545454	-897.0	-0.15612244897959185	153.0	95.25464283569447	39934.0	0.9735981232582551	0.2165204900471507	-0.003737572264834234	0.07219142837837712	1.5228159108715E12	1.522815910877E12	26.909065030710586	25939.0	1308.59375	42880.0	3863.7362637362635	2637.0	0.0	0.0	
0.46337388608239943	0.9486621666619629	-0.016134288557071687	0.3158793729843594	-1.5737165095045653	-183.0	0.6623259991019307	84.0	-0.2643316868732228	113.0	0.42168674698795183	1234.0	9.795180722891567	2012.0	0.13253012048192772	2036.0	0.43272727272727274	-476.0	-0.8181818181818182	-900.0	-0.16122448979591839	158.0	95.25761888228566	39935.0	0.9732804246726022	0.2178315392992244	-0.0037047507905278686	0.07253213258432326	1.5228159108793125E12	1.52281591088E12	26.909065030710586	25939.0	1316.40625	43136.0	3852.014652014652	2629.0	0.0	0.0	
0.46614164340614755	0.9487900076109937	-0.015897453096113092	0.3155071987175354	-1.6500523873671606	-177.0	0.5707229456668163	89.0	-0.2337973357281846	111.0	0.4096385542168675	1237.0	9.759036144578314	2013.0	0.26506024096385544	2025.0	0.4309090909090909	-474.0	-0.8027272727272727	-883.0	-0.15918367346938778	156.0	95.25761888228566	39935.0	0.9729617269714501	0.21913861224910178	-0.003671777508017089	0.07287156180707774	1.522815910887125E12	1.522815910894E12	26.909065030710586	25939.0	1324.21875	43392.0	3856.4102564102564	2632.0	0.0	0.0	
0.46890898291410704	0.9489281111023176	-0.015678848035971252	0.3151025447121206	-1.5584493339320462	-156.0	0.25011225864391545	83.0	-0.4017362670258945	122.0	0.3855421686746988	1236.0	9.771084337349398	2015.0	0.3493975903614458	2018.0	0.4381818181818182	-482.0	-0.8072727272727273	-888.0	-0.15816326530612246	155.0	95.25464283569447	39934.0	0.9726412144639092	0.2204478010911442	-0.003642391381109993	0.07320223975588501	1.5228159108949375E12	1.5228159109E12	26.909065030710586	25939.0	1332.03125	43648.0	3847.6190476190473	2626.0	0.0	0.0	
0.4716839402403365	0.9490787518175052	-0.015415916824310934	0.31466152029918093	-1.32944170034426	-156.0	0.25011225864391545	68.0	-0.5696751983236045	133.0	0.3132530120481928	1238.0	9.74698795180723	2021.0	0.3855421686746988	2015.0	0.4381818181818182	-482.0	-0.8154545454545454	-897.0	-0.16122448979591839	158.0	95.25761888228566	39935.0	0.9723179498049727	0.2217633839098271	-0.0036021098085746574	0.07352435548064501	1.52281591090275E12	1.522815910944E12	26.909065030710586	25939.0	1339.84375	43904.0	3859.340659340659	2634.0	0.0	0.0	
0.47447898799490185	0.9492372866295048	-0.01508981730209418	0.31419877639170957	-0.963029486603802	-157.0	0.26537943421643456	44.0	-0.5849423738961235	134.0	0.21686746987951808	1234.0	9.795180722891567	2029.0	0.3253012048192771	2020.0	0.4381818181818182	-482.0	-0.8181818181818182	-900.0	-0.15816326530612246	155.0	95.25761888228566	39935.0	0.9719904525593214	0.2230900696824017	-0.003546413990301701	0.07384310320156055	1.5228159109105625E12	1.522815910946E12	26.909065030710586	25939.0	1347.65625	44160.0	3857.8754578754574	2633.0	0.0	0.0	
0.4772600750590999	0.9494057023286193	-0.014693102678294606	0.3137083440388305	-1.1004340667564738	-147.0	0.11270767849124372	53.0	-0.5391408471785663	131.0	0.060240963855421686	1235.0	9.783132530120483	2042.0	0.3373493975903615	2019.0	0.4409090909090909	-485.0	-0.8027272727272727	-883.0	-0.16020408163265307	157.0	95.25761888228566	39935.0	0.9716627069254622	0.22441264669615918	-0.0034730337643087083	0.07415177684708651	1.522815910918375E12	1.522815910948E12	26.909065030710586	25939.0	1355.46875	44416.0	3859.340659340659	2634.0	0.0	0.0	
0.4800445274175232	0.9495718422538543	-0.014264472759622839	0.31322490516481716	-1.0240981888938783	-151.0	0.17377638078132004	48.0	-0.46280496931597087	126.0	0.0	1234.0	9.795180722891567	2047.0	0.30120481927710846	2022.0	0.4354545454545454	-479.0	-0.8054545454545454	-886.0	-0.16020408163265307	157.0	95.25464283569447	39934.0	0.9713326824692505	0.2257362558763817	-0.003391011116299587	0.07446115627366957	1.5228159109261875E12	1.52281591095E12	26.909065030710586	25939.0	1363.28125	44672.0	3849.0842490842488	2627.0	0.0	0.0	
0.48285313582467565	0.9497290039671771	-0.013785955331503917	0.3127695101174526	-0.7034875018709776	-157.0	0.26537943421643456	27.0	-0.09639275557551284	102.0	-0.0963855421686747	1235.0	9.783132530120483	2055.0	0.28915662650602414	2023.0	0.4354545454545454	-479.0	-0.8163636363636364	-898.0	-0.163265306122449	160.0	95.25464283569447	39934.0	0.9709978876446566	0.22706886857003802	-0.0032960573660545636	0.07477945654909102	1.522815910934E12	1.522815910951E12	26.909065030710586	25939.0	1371.09375	44928.0	3863.7362637362635	2637.0	0.0	0.0	
0.485644552333089	0.9498880800630807	-0.013289781887755066	0.31230756803422494	-0.8866936087412066	-159.0	0.2959137853614727	39.0	-0.20326298458314643	109.0	-0.10843373493975904	1234.0	9.795180722891567	2056.0	0.30120481927710846	2022.0	0.4381818181818182	-482.0	-0.8081818181818182	-889.0	-0.16020408163265307	157.0	95.25464283569447	39934.0	0.9706632448165178	0.22839399674661728	-0.003195435825485476	0.07509218735834211	1.5228159109418125E12	1.522815910952E12	26.909065030710586	25939.0	1378.90625	45184.0	3859.340659340659	2634.0	0.0	0.0	
0.4884532639693156	0.9500305540451217	-0.012810582471890385	0.3118939488952149	-0.7034875018709776	-150.0	0.15850920520880096	27.0	0.17841640472983067	84.0	-0.14457831325301207	1233.0	9.807228915662652	2059.0	0.3373493975903615	2019.0	0.4290909090909091	-472.0	-0.8063636363636364	-887.0	-0.15612244897959185	153.0	95.26059492965771	39936.0	0.970324620138822	0.22972306834282713	-0.0030976754380909375	0.07541782170341303	1.522815910949625E12	1.522815910966E12	26.909065030710586	25939.0	1386.71875	45440.0	3868.131868131868	2640.0	0.0	0.0	
0.4912709176770222	0.9501682596835758	-0.012321379394836289	0.3114939195228257	-0.5813500972908249	-156.0	0.25011225864391545	19.0	0.3921568627450978	70.0	-0.14457831325301207	1233.0	9.807228915662652	2059.0	0.3734939759036145	2016.0	0.43727272727272726	-481.0	-0.8081818181818182	-889.0	-0.16020408163265307	157.0	95.26059492965771	39936.0	0.9699829945480166	0.2310550363774706	-0.002996223811183288	0.07574683554539648	1.5228159109574375E12	1.52281591097E12	26.909065030710586	25939.0	1394.53125	45696.0	3850.5494505494503	2628.0	0.0	0.0	
0.4941010621411154	0.9502909916576963	-0.011804352899456512	0.31113933924667664	-0.428678341565634	-164.0	0.37224966322406816	9.0	0.6822331986229604	51.0	-0.16867469879518074	1233.0	9.807228915662652	2061.0	0.46987951807228917	2008.0	0.44	-484.0	-0.8072727272727273	-888.0	-0.15510204081632656	152.0	95.25761888228566	39935.0	0.9696379164841827	0.23238901526433609	-0.0028866967804799903	0.07608760399948783	1.52281591096525E12	1.522815910977E12	26.909065030710586	25939.0	1402.34375	45952.0	3857.8754578754574	2633.0	0.0	0.0	
0.4969496159219825	0.9504142468424575	-0.011318151441902345	0.3107807247028378	-0.13860200568777145	-158.0	0.2806466097889536	-10.0	0.7585690764855558	46.0	-0.14457831325301207	1233.0	9.807228915662652	2059.0	0.4819277108433735	2007.0	0.4390909090909091	-483.0	-0.81	-891.0	-0.15714285714285717	154.0	95.26952307645932	39939.0	0.9692886331663942	0.23373147385592224	-0.0027834265180989807	0.07642902773409996	1.5228159109730625E12	1.522815910989E12	26.909065030710586	25939.0	1410.15625	46208.0	3849.0842490842488	2627.0	0.0	0.0	
0.4998149188277612	0.9505300810575068	-0.010945803956927461	0.3104396147087925	0.044604101182457556	-139.0	-0.009429726088908947	-22.0	0.972309534500823	32.0	-0.03614457831325302	1235.0	9.783132530120483	2050.0	0.45783132530120485	2009.0	0.4309090909090909	-474.0	-0.8072727272727273	-888.0	-0.15918367346938778	156.0	95.26952307645932	39939.0	0.968935312469243	0.2350796763710489	-0.0027070537830351737	0.07677615428783142	1.522815910980875E12	1.522815910991E12	26.909065030710586	25939.0	1417.96875	46464.0	3822.7106227106224	2609.0	0.0	0.0	
0.5026899595640664	0.9506322902967761	-0.010651212016759597	0.31013674456226065	0.10567280347253388	-135.0	-0.07049842837898528	-26.0	1.2471186948061666	14.0	0.08433734939759037	1234.0	9.795180722891567	2040.0	0.43373493975903615	2011.0	0.4354545454545454	-479.0	-0.8072727272727273	-888.0	-0.15816326530612246	155.0	95.25464283569447	39934.0	0.9685787921208588	0.23642881253218728	-0.0026490299507550565	0.07713314915545558	1.5228159109886875E12	1.522815911002E12	26.909065030710586	25939.0	1425.78125	46720.0	3846.1538461538457	2625.0	0.0	0.0	
0.5055884643563329	0.95073518414516	-0.010382182712543927	0.30983030825048496	0.4568178416404728	-146.0	0.09744050291872464	-49.0	1.3081873970962428	10.0	0.18072289156626506	1236.0	9.771084337349398	2032.0	0.3253012048192771	2020.0	0.44	-484.0	-0.8072727272727273	-888.0	-0.15918367346938778	156.0	95.25464283569447	39934.0	0.968217336003767	0.23778871552663544	-0.002596691416020767	0.07749176874772695	1.5228159109965E12	1.522815911003E12	26.909065030710586	25939.0	1433.59375	46976.0	3862.271062271062	2636.0	0.0	0.0	
0.508488671983666	0.9508431047578383	-0.010172880236450261	0.30950590081963564	0.5331537195030682	-135.0	-0.07049842837898528	-54.0	1.140248465798533	21.0	0.26506024096385544	1234.0	9.795180722891567	2025.0	0.18072289156626506	2032.0	0.4390909090909091	-483.0	-0.8072727272727273	-888.0	-0.15408163265306124	151.0	95.25464283569447	39934.0	0.9678536321655149	0.23915045568322207	-0.0025586229021217167	0.07784510067674424	1.5228159110043125E12	1.522815911006E12	26.909065030710586	25939.0	1441.40625	47232.0	3853.4798534798533	2630.0	0.0	0.0	
0.5113951256881067	0.9509430224788666	-0.010047955065155783	0.30920285671022824	0.5636880706481063	-128.0	-0.17736865738661886	-56.0	1.3692560993863192	6.0	0.3614457831325301	1235.0	9.783132530120483	2017.0	0.060240963855421686	2042.0	0.43	-473.0	-0.8090909090909091	-890.0	-0.15918367346938778	156.0	95.25761888228566	39935.0	0.9674871032486698	0.24051284508963933	-0.002541332343712713	0.07820369572023836	1.522815911012125E12	1.52281591102E12	26.909065030710586	25939.0	1449.21875	47488.0	3857.8754578754574	2633.0	0.0	0.0	
0.5142740118147233	0.9510682116630222	-0.009902918744679775	0.3088222611218832	0.3804819637778774	-137.0	-0.03996407723394711	-44.0	0.7280347253405176	48.0	0.42168674698795183	1235.0	9.783132530120483	2012.0	0.0	2047.0	0.44363636363636366	-488.0	-0.8027272727272727	-883.0	-0.16020408163265307	157.0	95.25761888228566	39935.0	0.9671220366117618	0.24186875642798863	-0.0025184383332452005	0.07853743331849981	1.5228159110199375E12	1.522815911024E12	26.909065030710586	25939.0	1457.03125	47744.0	3849.0842490842488	2627.0	0.0	0.0	
0.5171596489847865	0.951177427864318	-0.009788098123586098	0.3084893739767063	0.3804819637778774	-129.0	-0.16210148181409978	-44.0	1.155515641371052	20.0	0.42168674698795183	1236.0	9.771084337349398	2012.0	-0.024096385542168676	2049.0	0.4381818181818182	-482.0	-0.7972727272727272	-877.0	-0.15816326530612246	155.0	95.25761888228566	39935.0	0.9667541029599929	0.24322353478434872	-0.0025028935240610645	0.07888315448201363	1.52281591102775E12	1.52281591104E12	26.909065030710586	25939.0	1464.84375	48000.0	3862.271062271062	2636.0	0.0	0.0	
0.5200408012836535	0.951287644953821	-0.009657895100268174	0.3081534384368456	0.39574913935039646	-144.0	0.06690615177368647	-45.0	0.972309534500823	32.0	0.45783132530120485	1235.0	9.783132530120483	2009.0	-0.060240963855421686	2052.0	0.4390909090909091	-483.0	-0.8090909090909091	-890.0	-0.15714285714285717	154.0	95.2486907448548	39932.0	0.9663847333251547	0.2445763073349323	-0.00248304740714507	0.0792263312419081	1.5228159110355625E12	1.522815911043E12	26.909065030710586	25939.0	1472.65625	48256.0	3844.688644688644	2624.0	0.0	0.0	
0.5229110221610933	0.9513995962284393	-0.009557797180299215	0.3078107483656496	0.2736117347702438	-142.0	0.0363718006286483	-37.0	0.9112408322107467	36.0	0.5060240963855422	1236.0	9.771084337349398	2005.0	-0.13253012048192772	2058.0	0.43636363636363634	-480.0	-0.8072727272727273	-888.0	-0.15918367346938778	156.0	95.2516667898842	39933.0	0.9660147710203136	0.24592430413146105	-0.002470565081079087	0.07956503702134309	1.522815911043375E12	1.522815911055E12	26.909065030710586	25939.0	1480.46875	48512.0	3859.340659340659	2634.0	0.0	0.0	
0.5257714320501111	0.9515075825142156	-0.009439470887447267	0.3074804332105115	0.18200868133512932	-158.0	0.2806466097889536	-31.0	0.804370603203113	43.0	0.5421686746987953	1235.0	9.783132530120483	2002.0	-0.1566265060240964	2060.0	0.43454545454545457	-478.0	-0.8072727272727273	-888.0	-0.15408163265306124	151.0	95.2516667898842	39933.0	0.9656440939614404	0.2472665671959936	-0.0024530183525371266	0.07990438814896599	1.5228159110511875E12	1.522815911056E12	26.909065030710586	25939.0	1488.28125	48768.0	3852.014652014652	2629.0	0.0	0.0	
0.5286163812526182	0.9516158415809285	-0.009325762325758444	0.30714869397291233	-0.0011974255350996944	-153.0	0.2043107319263582	-19.0	0.8196377787756322	42.0	0.5301204819277109	1236.0	9.771084337349398	2003.0	-0.060240963855421686	2052.0	0.43636363636363634	-480.0	-0.8054545454545454	-886.0	-0.15816326530612246	155.0	95.2516667898842	39933.0	0.9652734612069123	0.2486015931666838	-0.00243627656284684	0.08023999950849758	1.522815911059E12	1.522815911059E12	26.909065030710586	25939.0	1496.09375	49024.0	3857.8754578754574	2633.0	0.0	0.0	
0.5314490576707315	0.9517353469498347	-0.009198049320361536	0.30678204845619267	-0.03173177668013786	-147.0	0.11270767849124372	-17.0	0.46849274060769325	65.0	0.5060240963855422	1236.0	9.771084337349398	2005.0	0.0	2047.0	0.4381818181818182	-482.0	-0.8109090909090909	-892.0	-0.15612244897959185	153.0	95.2486907448548	39932.0	0.9649024867721099	0.2499337316055323	-0.002415485352621733	0.08056355414977243	1.5228159110668125E12	1.522815911095E12	26.909065030710586	25939.0	1503.90625	49280.0	3852.014652014652	2629.0	0.0	0.0	
0.5342888361305969	0.9518480157438081	-0.009140608082213515	0.30643401281265115	0.044604101182457556	-139.0	-0.009429726088908947	-22.0	0.6211644963328841	55.0	0.6144578313253012	1236.0	9.771084337349398	1996.0	-0.03614457831325302	2050.0	0.44	-484.0	-0.81	-891.0	-0.15612244897959185	153.0	95.2486907448548	39932.0	0.9645286393436981	0.25126715076854944	-0.002412921507552878	0.08089190713691825	1.522815911074625E12	1.522815911097E12	26.909065030710586	25939.0	1511.71875	49536.0	3856.4102564102564	2632.0	0.0	0.0	
0.5371275579201796	0.9519744373060901	-0.009098373071445598	0.306042301525804	0.15147433019009113	-130.0	-0.1468343062415807	-29.0	0.37688968717257876	71.0	0.6265060240963856	1236.0	9.771084337349398	1995.0	-0.03614457831325302	2050.0	0.43454545454545457	-478.0	-0.8018181818181818	-882.0	-0.15918367346938778	156.0	95.26059492965771	39936.0	0.9641529875357466	0.25260353629131943	-0.0024142257630872716	0.081207398634482	1.5228159110824375E12	1.522815911102E12	26.909065030710586	25939.0	1519.53125	49792.0	3849.0842490842488	2627.0	0.0	0.0	
0.5399594548571874	0.9521059176463065	-0.008994955987345744	0.305636078285384	0.1667415057626102	-150.0	0.15850920520880096	-30.0	0.1326148780122734	87.0	0.6024096385542169	1236.0	9.771084337349398	1997.0	-0.03614457831325302	2050.0	0.43727272727272726	-481.0	-0.8072727272727273	-888.0	-0.15714285714285717	154.0	95.25761888228566	39935.0	0.9637763034999428	0.2539379768872936	-0.002399061788486183	0.08151677869561237	1.52281591109025E12	1.522815911104E12	26.909065030710586	25939.0	1527.34375	50048.0	3863.7362637362635	2637.0	0.0	0.0	
0.5427636662718068	0.952230913740468	-0.008856841222172743	0.30525045991867544	-0.23020505912288594	-146.0	0.09744050291872464	-4.0	0.2242179314473879	81.0	0.49397590361445787	1236.0	9.771084337349398	2006.0	0.0	2047.0	0.4354545454545454	-479.0	-0.8181818181818182	-900.0	-0.15714285714285717	154.0	95.25761888228566	39935.0	0.9634013980033863	0.255257829883075	-0.0023741910049004714	0.08182633943649535	1.5228159110980625E12	1.522815911112E12	26.909065030710586	25939.0	1535.15625	50304.0	3859.340659340659	2634.0	0.0	0.0	
0.5455756963123795	0.9523632152048391	-0.008730802297635423	0.3048410723900923	-0.03173177668013786	-140.0	0.005837449483610136	-17.0	0.11734770243975433	88.0	0.5060240963855422	1235.0	9.783132530120483	2005.0	0.024096385542168676	2045.0	0.43	-473.0	-0.81	-891.0	-0.15816326530612246	155.0	95.25761888228566	39935.0	0.9630235453269648	0.2565830723409746	-0.0023522286893946326	0.08212944145763126	1.522815911105875E12	1.522815911114E12	26.909065030710586	25939.0	1542.96875	50560.0	3856.4102564102564	2632.0	0.0	0.0	
0.5483716293702214	0.9524915966592211	-0.008609405130154464	0.30444315797349397	-0.23020505912288594	-134.0	-0.08576560395150437	-4.0	0.14788205358479248	86.0	0.5180722891566265	1237.0	9.759036144578314	2004.0	0.1927710843373494	2031.0	0.44272727272727275	-487.0	-0.8045454545454546	-885.0	-0.15612244897959185	153.0	95.25464283569447	39934.0	0.9626459681374638	0.25789972466791233	-0.0023311105530054786	0.08243202028635316	1.5228159111136875E12	1.522815911119E12	26.909065030710586	25939.0	1550.78125	50816.0	3844.688644688644	2624.0	0.0	0.0	
0.5511645152632672	0.9526256132915655	-0.008454415389294817	0.3040278996429284	-0.13860200568777145	-147.0	0.11270767849124372	-10.0	-0.09639275557551284	102.0	0.5060240963855422	1237.0	9.759036144578314	2005.0	0.3132530120481928	2021.0	0.4354545454545454	-479.0	-0.8045454545454546	-885.0	-0.15816326530612246	155.0	95.25464283569447	39934.0	0.9622669242181912	0.25921635526033704	-0.0023005078936494615	0.08272820186997717	1.5228159111215E12	1.522815911128E12	26.909065030710586	25939.0	1558.59375	51072.0	3859.340659340659	2634.0	0.0	0.0	
0.5539563466041776	0.9527663897609319	-0.008278029145832063	0.3035913055003087	-0.03173177668013786	-146.0	0.09744050291872464	-17.0	-0.3254003891632991	117.0	0.46987951807228917	1236.0	9.771084337349398	2008.0	0.3734939759036145	2016.0	0.43454545454545457	-478.0	-0.8154545454545454	-897.0	-0.15816326530612246	155.0	95.2516667898842	39933.0	0.9618861480117198	0.26053420579600217	-0.0022636291248756962	0.0830171178529305	1.5228159111293125E12	1.522815911131E12	26.909065030710586	25939.0	1566.40625	51328.0	3860.8058608058604	2635.0	0.0	0.0	
0.556747218939854	0.9529187686708094	-0.008050459813048312	0.3031188057704517	0.07513845232749572	-152.0	0.18904355635383913	-24.0	-0.5086064960335281	129.0	0.43373493975903615	1234.0	9.795180722891567	2011.0	0.4096385542168675	2013.0	0.4409090909090909	-485.0	-0.7954545454545454	-875.0	-0.15612244897959185	153.0	95.2635709778107	39937.0	0.9615036292566098	0.26185467563313014	-0.002212203822980374	0.08329469328643609	1.522815911137125E12	1.522815911145E12	26.909065030710586	25939.0	1574.21875	51584.0	3857.8754578754574	2633.0	0.0	0.0	
0.5595436673060136	0.9530742980768321	-0.007812813032231506	0.3026356593296332	0.2736117347702438	-142.0	0.0363718006286483	-37.0	-0.6460110761861998	138.0	0.3855421686746988	1235.0	9.783132530120483	2015.0	0.6024096385542169	1997.0	0.4390909090909091	-483.0	-0.8027272727272727	-883.0	-0.15510204081632656	152.0	95.2635709778107	39937.0	0.9611184683528115	0.2631784683038312	-0.0021574017588302866	0.08356870963492519	1.5228159111449375E12	1.522815911149E12	26.909065030710586	25939.0	1582.03125	51840.0	3846.1538461538457	2625.0	0.0	0.0	
0.5623579925140223	0.95322723206088	-0.007569076895526573	0.30215981389406993	0.5789552462206254	-141.0	0.021104625056129218	-57.0	-0.5086064960335281	129.0	0.3614457831325301	1235.0	9.783132530120483	2017.0	0.7710843373493976	1983.0	0.43636363636363634	-480.0	-0.8036363636363636	-884.0	-0.15918367346938778	156.0	95.25464283569447	39934.0	0.9607289481620811	0.26450963004794753	-0.0021003320741389947	0.08384588469601399	1.52281591115275E12	1.522815911163E12	26.909065030710586	25939.0	1589.84375	52096.0	3859.340659340659	2634.0	0.0	0.0	
0.5651874753208184	0.9533760562782244	-0.007353506692736023	0.3016952456614072	0.869031582098488	-139.0	-0.009429726088908947	-76.0	-0.5544080227510854	132.0	0.42168674698795183	1234.0	9.795180722891567	2012.0	0.9518072289156627	1968.0	0.43727272727272726	-481.0	-0.8109090909090909	-892.0	-0.15816326530612246	155.0	95.25464283569447	39934.0	0.9603354123246959	0.265846474429383	-0.002050506530013213	0.0841269474757876	1.5228159111605625E12	1.522815911166E12	26.909065030710586	25939.0	1597.65625	52352.0	3850.5494505494503	2628.0	0.0	0.0	
0.5680317886147208	0.9535144582236179	-0.007163695467589663	0.3012621108366759	1.1591079179763506	-151.0	0.17377638078132004	-95.0	-0.6307439006136808	137.0	0.5421686746987953	1235.0	9.783132530120483	2002.0	1.2048192771084338	1947.0	0.4409090909090909	-485.0	-0.8127272727272727	-894.0	-0.15306122448979592	150.0	95.25464283569447	39934.0	0.9599378765622376	0.26718705802126314	-0.00200735993045284	0.08441753178833275	1.522815911168375E12	1.52281591118E12	26.909065030710586	25939.0	1605.46875	52608.0	3859.340659340659	2634.0	0.0	0.0	
0.5708998132289139	0.9536593572327242	-0.0069818731808358936	0.30080738656049594	1.6629247118694803	-158.0	0.2806466097889536	-128.0	-0.859751534201467	152.0	0.5903614457831325	1236.0	9.771084337349398	1998.0	1.4096385542168675	1930.0	0.43	-473.0	-0.8090909090909091	-890.0	-0.15816326530612246	155.0	95.2486907448548	39932.0	0.9595350609392104	0.26854015730896413	-0.0019660199504919953	0.08470410560543712	1.5228159111761875E12	1.522815911181E12	26.909065030710586	25939.0	1613.28125	52864.0	3849.0842490842488	2627.0	0.0	0.0	
0.5738004916209042	0.9537994608948885	-0.006826409901426887	0.30036642376349737	2.2278102080526865	-156.0	0.25011225864391545	-165.0	-0.859751534201467	152.0	0.6626506024096386	1238.0	9.74698795180723	1992.0	1.6867469879518073	1907.0	0.4354545454545454	-479.0	-0.8081818181818182	-889.0	-0.15612244897959185	153.0	95.25761888228566	39935.0	0.9591256520730435	0.26990668231081755	-0.001931741130215311	0.08499785147656415	1.522815911184E12	1.522815911184E12	26.909065030710586	25939.0	1621.09375	53120.0	3857.8754578754574	2633.0	0.0	0.0	
0.5767502343037307	0.95396051282356	-0.0066237363313986705	0.29985907705191583	3.189642269121389	-158.0	0.2806466097889536	-228.0	-1.2872324502320014	180.0	0.6265060240963856	1238.0	9.74698795180723	1995.0	1.8433734939759037	1894.0	0.43363636363636365	-477.0	-0.8054545454545454	-886.0	-0.15612244897959185	153.0	95.25761888228566	39935.0	0.9587072491755234	0.271301422856369	-0.0018837562636790765	0.08527836652252384	1.5228159111918125E12	1.522815911203E12	26.909065030710586	25939.0	1628.90625	53376.0	3854.945054945055	2631.0	0.0	0.0	
0.5797471255507788	0.9541296777772016	-0.006396514836719421	0.2993253122987046	3.937733872174824	-143.0	0.051638976201167384	-277.0	-1.1803622212243678	173.0	0.5421686746987953	1238.0	9.74698795180723	2002.0	1.8313253012048194	1895.0	0.4390909090909091	-483.0	-0.8127272727272727	-894.0	-0.15510204081632656	152.0	95.25761888228566	39935.0	0.9582800228588929	0.2727199020648745	-0.0018283226488569457	0.08555647283272384	1.522815911199625E12	1.522815911204E12	26.909065030710586	25939.0	1636.71875	53632.0	3856.4102564102564	2632.0	0.0	0.0	
0.5827810981929349	0.9543152852508583	-0.0061218404091908235	0.29873878122295905	4.594222421793145	-141.0	0.021104625056129218	-320.0	-1.2719652746594823	179.0	0.44578313253012053	1237.0	9.759036144578314	2010.0	1.7228915662650603	1904.0	0.43	-473.0	-0.8090909090909091	-890.0	-0.15714285714285717	154.0	95.25464283569447	39934.0	0.9578453185897245	0.2741599259780068	-0.0017587094531255887	0.08582300148877633	1.5228159112074375E12	1.52281591125E12	26.909065030710586	25939.0	1644.53125	53888.0	3850.5494505494503	2628.0	0.0	0.0	
0.5858674364713305	0.9545229382213138	-0.005757089224974694	0.2980818953458996	5.494985780571771	-140.0	0.005837449483610136	-379.0	-1.3635683280945967	185.0	0.28915662650602414	1236.0	9.771084337349398	2023.0	1.5421686746987953	1919.0	0.43454545454545457	-478.0	-0.8127272727272727	-894.0	-0.15714285714285717	154.0	95.25464283569447	39934.0	0.9574008498016315	0.27563015127714746	-0.001662429796556541	0.08607478628043153	1.52281591121525E12	1.522815911252E12	26.909065030710586	25939.0	1652.34375	54144.0	3859.340659340659	2634.0	0.0	0.0	
0.5889852721437413	0.9547385474864272	-0.0053418574714735895	0.2973983364147452	6.01406975003742	-138.0	-0.02469690166142803	-413.0	-1.2872324502320014	180.0	0.1927710843373494	1237.0	9.759036144578314	2031.0	1.4096385542168675	1930.0	0.4381818181818182	-482.0	-0.8090909090909091	-890.0	-0.15408163265306124	151.0	95.2516667898842	39933.0	0.956949530077989	0.27711703163435947	-0.0015504974527381077	0.08632116553503089	1.5228159112230625E12	1.522815911254E12	26.909065030710586	25939.0	1660.15625	54400.0	3857.8754578754574	2633.0	0.0	0.0	
0.5921476974413797	0.954951943103929	-0.004849320350794987	0.29672086285626026	6.685825475228259	-164.0	0.37224966322406816	-457.0	-1.0887591677892532	167.0	0.0963855421686747	1237.0	9.759036144578314	2039.0	1.2530120481927711	1943.0	0.4309090909090909	-474.0	-0.8209090909090909	-903.0	-0.15306122448979592	150.0	95.25464283569447	39934.0	0.956489380096253	0.27862360018870475	-0.0014148723444817428	0.0865733984386612	1.522815911230875E12	1.522815911255E12	26.909065030710586	25939.0	1667.96875	54656.0	3860.8058608058604	2635.0	0.0	0.0	
0.595312062186043	0.9551674846482615	-0.004367477152884473	0.29603378424434956	6.731627001945816	-149.0	0.14324202963628188	-460.0	-0.9666217632091006	159.0	0.060240963855421686	1234.0	9.795180722891567	2042.0	1.180722891566265	1949.0	0.4318181818181818	-475.0	-0.8118181818181818	-893.0	-0.15306122448979592	150.0	95.25464283569447	39934.0	0.9560265542681048	0.28013163247739303	-0.0012808942141657848	0.08682082313487485	1.5228159112386875E12	1.522815911265E12	26.909065030710586	25939.0	1675.78125	54912.0	3852.014652014652	2629.0	0.0	0.0	
0.5984958259662305	0.9553885241898257	-0.003811880168009887	0.2953273394319785	7.128573566831313	-166.0	0.4027840143691063	-486.0	-1.0124232899266579	162.0	-0.024096385542168676	1237.0	9.759036144578314	2049.0	1.1686746987951808	1950.0	0.43363636363636365	-477.0	-0.8109090909090909	-892.0	-0.15408163265306124	151.0	95.2486907448548	39932.0	0.9555584758295025	0.2816500913297376	-0.0011237484753843284	0.08706298015639381	1.5228159112465E12	1.522815911266E12	26.909065030710586	25939.0	1683.59375	55168.0	3846.1538461538457	2625.0	0.0	0.0	
0.6017138890116136	0.9556180551436598	-0.003175098603547163	0.2945913295266952	7.708726238587038	-172.0	0.4943870678042208	-524.0	-0.859751534201467	152.0	-0.16867469879518074	1236.0	9.771084337349398	2061.0	1.036144578313253	1961.0	0.4381818181818182	-482.0	-0.8036363636363636	-884.0	-0.15408163265306124	151.0	95.24571470060633	39931.0	0.9550828939616377	0.28318667753019255	-9.409048097506958E-4	0.0872988317757617	1.5228159112543125E12	1.522815911266E12	26.909065030710586	25939.0	1691.40625	55424.0	3853.4798534798533	2630.0	0.0	0.0	
0.604954627762611	0.9558417909890684	-0.0025184853301930864	0.29387093736953485	8.044604101182458	-164.0	0.37224966322406816	-546.0	-0.6307439006136808	137.0	-0.28915662650602414	1235.0	9.783132530120483	2071.0	0.9277108433734941	1970.0	0.42818181818181816	-471.0	-0.8172727272727273	-899.0	-0.1489795918367347	146.0	95.24571470060633	39931.0	0.9546014620755866	0.28473185503278986	-7.50221434863949E-4	0.08754002799026958	1.522815911262125E12	1.52281591127E12	26.909065030710586	25939.0	1699.21875	55680.0	3853.4798534798533	2630.0	0.0	0.0	
0.6082171407315692	0.9560609849131398	-0.001888936060694866	0.2931617728276919	8.33468043706032	-158.0	0.2806466097889536	-565.0	-0.35593474030833727	119.0	-0.2530120481927711	1235.0	9.783132530120483	2068.0	0.9156626506024097	1971.0	0.43727272727272726	-481.0	-0.8109090909090909	-892.0	-0.15000000000000002	147.0	95.2516667898842	39933.0	0.9541142637819223	0.2862855482425772	-5.656282436630695E-4	0.08778517289393069	1.5228159112699375E12	1.522815911284E12	26.909065030710586	25939.0	1707.03125	55936.0	3847.6190476190473	2626.0	0.0	0.0	
0.6115071795381115	0.9562698674014976	-0.0012613253493960021	0.2924830760202767	8.685825475228258	-172.0	0.4943870678042208	-588.0	0.01047747343212074	95.0	-0.22891566265060243	1236.0	9.771084337349398	2066.0	0.9036144578313253	1972.0	0.43272727272727274	-476.0	-0.8018181818181818	-882.0	-0.15204081632653063	149.0	95.2486907448548	39932.0	0.953620383880935	0.2878486089132696	-3.796739389031117E-4	0.0880408861903023	1.52281591127775E12	1.522815911291E12	26.909065030710586	25939.0	1714.84375	56192.0	3857.8754578754574	2633.0	0.0	0.0	
0.6148395099078036	0.9564703047969144	-6.479410314394063E-4	0.2918289502673032	9.250710971411465	-181.0	0.6317916479568926	-625.0	0.28528663373746427	77.0	-0.18072289156626506	1236.0	9.771084337349398	2062.0	0.8072289156626506	1980.0	0.4381818181818182	-482.0	-0.8090909090909091	-890.0	-0.1489795918367347	146.0	95.2486907448548	39932.0	0.9531175248908225	0.28942826784401626	-1.960671956610206E-4	0.08830754824169594	1.5228159112855625E12	1.522815911299E12	26.909065030710586	25939.0	1722.65625	56448.0	3860.8058608058604	2635.0	0.0	0.0	
0.6181771060426846	0.9566659443163449	-9.457176731492777E-5	0.29118767494778514	9.32704684927406	-168.0	0.4333183655141445	-630.0	0.25475228259242605	79.0	-0.12048192771084337	1239.0	9.734939759036145	2057.0	0.7349397590361446	1986.0	0.4318181818181818	-475.0	-0.8190909090909091	-901.0	-0.14387755102040817	141.0	95.24571470060633	39931.0	0.9526112190510463	0.29100869987216355	-2.8767833970087833E-5	0.08857652685223254	1.522815911293375E12	1.522815911306E12	26.909065030710586	25939.0	1730.46875	56704.0	3856.4102564102564	2632.0	0.0	0.0	
0.6215350502521718	0.9568637936858684	4.531644584813156E-4	0.2905365295019917	9.647657536296961	-167.0	0.4180511899416254	-651.0	0.37688968717257876	71.0	-0.0963855421686747	1238.0	9.74698795180723	2055.0	0.6867469879518072	1990.0	0.4381818181818182	-482.0	-0.8018181818181818	-882.0	-0.14387755102040817	141.0	95.2516667898842	39933.0	0.9520991492329297	0.29259888808409024	1.3857292704126702E-4	0.08884301615450364	1.5228159113011875E12	1.522815911307E12	26.909065030710586	25939.0	1738.28125	56960.0	3849.0842490842488	2627.0	0.0	0.0	
0.624911759023911	0.9570624038656289	9.126516579298317E-4	0.28988053086382987	9.922466696602305	-140.0	0.005837449483610136	-669.0	0.4379583894626551	67.0	-0.024096385542168676	1240.0	9.72289156626506	2049.0	0.6385542168674699	1994.0	0.4309090909090909	-474.0	-0.8054545454545454	-886.0	-0.14591836734693878	143.0	95.2516667898842	39933.0	0.9515815114593054	0.2941976625532072	2.8054595332945806E-4	0.08910826948729995	1.522815911309E12	1.522815911315E12	26.909065030710586	25939.0	1746.09375	57216.0	3859.340659340659	2634.0	0.0	0.0	
0.6283208408984773	0.9572556848878895	0.0012509926068226672	0.28924036503799944	10.304146085915281	-101.0	-0.5895823978446341	-694.0	0.7433019009130367	47.0	0.08433734939759037	1239.0	9.734939759036145	2040.0	0.5301204819277109	2003.0	0.43272727272727274	-476.0	-0.8109090909090909	-892.0	-0.14285714285714288	140.0	95.25464283569447	39934.0	0.9510561593519989	0.2958093261912792	3.865793496309449E-4	0.08938050600266818	1.5228159113168125E12	1.522815911324E12	26.909065030710586	25939.0	1753.90625	57472.0	3859.340659340659	2634.0	0.0	0.0	
0.6317453887215357	0.9574749207993694	0.0015826573717412217	0.288512168263116	10.746894177518335	-79.0	-0.9254602604400539	-723.0	0.1631492291573116	85.0	0.07228915662650603	1239.0	9.734939759036145	2041.0	0.3855421686746988	2015.0	0.43454545454545457	-478.0	-0.8072727272727273	-888.0	-0.14183673469387756	139.0	95.2516667898842	39933.0	0.9505256417999856	0.2974358574461577	4.916463524854787E-4	0.08962518211897018	1.522815911324625E12	1.522815911335E12	26.909065030710586	25939.0	1761.71875	57728.0	3854.945054945055	2631.0	0.0	0.0	
0.6351932204590446	0.9576942699265214	0.001933760944606021	0.2877810728983325	11.021703337823679	-68.0	-1.093399191737764	-741.0	0.590630145187846	57.0	-0.04819277108433735	1238.0	9.74698795180723	2051.0	0.08433734939759037	2040.0	0.43454545454545457	-478.0	-0.8027272727272727	-883.0	-0.14183673469387756	139.0	95.2516667898842	39933.0	0.949988701883929	0.29907285750585305	6.038831280476523E-4	0.08986950273223207	1.5228159113324375E12	1.522815911345E12	26.909065030710586	25939.0	1769.53125	57984.0	3841.7582417582416	2622.0	0.0	0.0	
0.6386507008162834	0.957909248262235	0.00233253085255726	0.28706172052974926	11.113306391258792	-91.0	-0.7422541535698249	-747.0	0.789103427630594	44.0	-0.0963855421686747	1238.0	9.74698795180723	2055.0	-0.24096385542168675	2067.0	0.4409090909090909	-485.0	-0.8072727272727273	-888.0	-0.13979591836734695	137.0	95.2516667898842	39933.0	0.9494474242448485	0.30071270276434703	7.322422851916142E-4	0.09011616288002779	1.52281591134025E12	1.522815911352E12	26.909065030710586	25939.0	1777.34375	58240.0	3857.8754578754574	2633.0	0.0	0.0	
0.6421112697108723	0.9581148034429434	0.002668618197921577	0.2863719642360306	11.021703337823679	-68.0	-1.093399191737764	-741.0	1.2165843436611283	16.0	-0.10843373493975904	1237.0	9.759036144578314	2056.0	-0.5180722891566265	2090.0	0.43	-473.0	-0.8109090909090909	-892.0	-0.13877551020408163	136.0	95.24571470060633	39931.0	0.9489028218210843	0.3023507853863744	8.42131658062842E-4	0.09036995147999378	1.5228159113480625E12	1.522815911364E12	26.909065030710586	25939.0	1785.15625	58496.0	3852.014652014652	2629.0	0.0	0.0	
0.6455637091800204	0.9583088020107131	0.002916288479937073	0.28571967949423976	10.792695704235891	-61.0	-1.2002694207453974	-726.0	1.3692560993863192	6.0	0.03614457831325302	1237.0	9.759036144578314	2044.0	-0.710843373493976	2106.0	0.42727272727272725	-470.0	-0.8236363636363636	-906.0	-0.13775510204081634	135.0	95.24571470060633	39931.0	0.948356667851794	0.303981277840537	9.250641305003879E-4	0.09063198949504872	1.522815911355875E12	1.522815911367E12	26.909065030710586	25939.0	1792.96875	58752.0	3859.340659340659	2634.0	0.0	0.0	
0.6490176418842835	0.9584961141868611	0.003124495921724545	0.2850884715556224	10.746894177518335	-78.0	-0.940727436012573	-723.0	1.4303248016763954	2.0	0.20481927710843376	1238.0	9.74698795180723	2030.0	-0.9277108433734941	2124.0	0.43454545454545457	-478.0	-0.8154545454545454	-897.0	-0.13673469387755102	134.0	95.25464283569447	39934.0	0.9478074498834922	0.30561004603317754	9.962245316756267E-4	0.09089854369368533	1.5228159113636875E12	1.522815911401E12	26.909065030710586	25939.0	1800.78125	59008.0	3844.688644688644	2624.0	0.0	0.0	
0.6524264879947606	0.9586748923802731	0.0032101024354655294	0.28448575704598517	10.075138452327495	-58.0	-1.2460709474629548	-679.0	1.2623858703786857	13.0	0.42168674698795183	1239.0	9.734939759036145	2012.0	-0.9518072289156627	2126.0	0.4263636363636364	-469.0	-0.8136363636363636	-895.0	-0.1326530612244898	130.0	95.2486907448548	39932.0	0.9472626295897348	0.30721530912890266	0.0010287039119157378	0.0911658169920907	1.5228159113715E12	1.522815911402E12	26.909065030710586	25939.0	1808.59375	59264.0	3854.945054945055	2631.0	0.0	0.0	
0.6558307747877073	0.9588521956192125	0.0032900488348368484	0.2838866719923266	10.075138452327495	-79.0	-0.9254602604400539	-679.0	1.0944469390809757	24.0	0.5421686746987953	1241.0	9.710843373493976	2002.0	-0.9518072289156627	2126.0	0.4318181818181818	-475.0	-0.8118181818181818	-893.0	-0.1346938775510204	132.0	95.2486907448548	39932.0	0.9467157916564103	0.30881771260857155	0.0010596266663275224	0.09143143550723648	1.5228159113793125E12	1.522815911404E12	26.909065030710586	25939.0	1816.40625	59520.0	3850.5494505494503	2628.0	0.0	0.0	
0.6592181626290129	0.9590325792324376	0.003402679138563102	0.2832753673467919	9.891932345457265	-90.0	-0.757521329142344	-667.0	0.9112408322107467	36.0	0.5301204819277109	1238.0	9.74698795180723	2003.0	-1.0843373493975905	2137.0	0.43454545454545457	-478.0	-0.8036363636363636	-884.0	-0.1316326530612245	129.0	95.25464283569447	39934.0	0.9461689457139906	0.3104131227403012	0.0011013559705448275	0.09168863840256643	1.522815911387125E12	1.522815911405E12	26.909065030710586	25939.0	1824.21875	59776.0	3860.8058608058604	2635.0	0.0	0.0	
0.6625923983370315	0.9592062367707109	0.003524833864913154	0.28268528593896713	9.66292471186948	-89.0	-0.7727885047148632	-652.0	1.0791797635084566	25.0	0.45783132530120485	1237.0	9.759036144578314	2009.0	-1.2530120481927711	2151.0	0.42727272727272725	-470.0	-0.82	-902.0	-0.1306122448979592	128.0	95.2486907448548	39932.0	0.9456215246040036	0.3120000679438521	0.0011465192397477908	0.0919487645499618	1.5228159113949375E12	1.522815911406E12	26.909065030710586	25939.0	1832.03125	60032.0	3843.223443223443	2623.0	0.0	0.0	
