belt	belt	belt	belt	belt	belt	belt	belt	belt	belt	belt	belt	belt	belt	belt	belt	belt	belt	belt	belt	belt	belt	belt	belt	belt	belt	belt	belt	belt	belt	belt	belt	belt	belt	belt	belt	Annotation	Annotation	
Axis Angle A	Axis Angle X	Axis Angle Y	Axis Angle Z	Gyroscope X	Gyroscope X	Gyroscope Y	Gyroscope Y	Gyroscope Z	Gyroscope Z	Low Noise Accelerometer X	Low Noise Accelerometer X	Low Noise Accelerometer Y	Low Noise Accelerometer Y	Low Noise Accelerometer Z	Low Noise Accelerometer Z	Magnetometer X	Magnetometer X	Magnetometer Y	Magnetometer Y	Magnetometer Z	Magnetometer Z	Pressure	Pressure	Quaternion 0	Quaternion 1	Quaternion 2	Quaternion 3	SyncTimestamp	SystemTimestamp	Temperature	Temperature	Timestamp	Timestamp	VSenseBatt	VSenseBatt	Level	Pulse	
CAL	CAL	CAL	CAL	CAL	RAW	CAL	RAW	CAL	RAW	CAL	RAW	CAL	RAW	CAL	RAW	CAL	RAW	CAL	RAW	CAL	RAW	CAL	RAW	CAL	CAL	CAL	CAL	CAL	UNCAL	CAL	RAW	CAL	RAW	CAL	RAW	no format	no format	
local	local	local	local	deg/s	No Units	deg/s	No Units	deg/s	No Units	m/s^2	No Units	m/s^2	No Units	m/s^2	No Units	local flux	No Units	local flux	No Units	local flux	No Units	kPa	No Units	local	local	local	local	mSecs	mSecs	Degrees Celsius	No Units	mSecs	No Units	mV	No Units	no unit	no unit	
0.0030966892153665685	0.9239840555649895	-0.07235178236298112	0.3755245460178138	-0.5202813950007485	-118.0	-0.3300404131118097	15.0	0.11734770243975433	88.0	0.30120481927710846	1235.0	9.783132530120483	2022.0	0.012048192771084338	2046.0	0.43363636363636365	-477.0	-0.8063636363636364	-887.0	-0.15714285714285717	154.0	95.26214389063172	39922.0	0.9999988013147274	0.0014306451583880157	-1.1202544731689029E-4	5.814411735576267E-4	1.5228159530665E12	1.522815953103E12	27.0666214667408	25965.0	1503.90625	49280.0	3852.014652014652	2629.0	0.0	0.0	
0.006225381683023954	0.9252606734428027	-0.06611116529800497	0.3735264382192821	0.04580152671755725	-127.0	0.13740458015267176	12.0	0.061068702290076333	84.0	0.30120481927710846	1234.0	9.795180722891567	2022.0	0.024096385542168676	2045.0	0.43363636363636365	-477.0	-0.8136363636363636	-895.0	-0.15306122448979592	150.0	95.26214389063172	39922.0	0.999995155581774	0.0028800457735121917	-2.057832864440394E-4	0.001162670445816811	1.5228159530743125E12	1.522815953103E12	27.0666214667408	25965.0	1511.71875	49536.0	3849.0842490842488	2627.0	0.0	0.0	
0.009342854231375503	0.9256830293678611	-0.06428782442746747	0.37279753858662656	-0.11450381679389313	-131.0	0.1297709923664122	21.0	0.015267175572519083	85.0	0.30120481927710846	1233.0	9.807228915662652	2022.0	0.03614457831325302	2044.0	0.4290909090909091	-472.0	-0.8172727272727273	-899.0	-0.15612244897959185	153.0	95.26214389063172	39922.0	0.9999890889041935	0.004324245076434926	-3.003147939797815E-4	0.0017414901965321142	1.522815953082125E12	1.522815953104E12	27.0666214667408	25965.0	1519.53125	49792.0	3859.340659340659	2634.0	0.0	0.0	
0.012467788686236577	0.9260007519581817	-0.06411399174740398	0.3720376371263209	-0.015267175572519083	-130.0	0.07124681933842246	17.0	0.05597964376590338	82.0	0.3253012048192771	1235.0	9.783132530120483	2020.0	0.04819277108433735	2043.0	0.4318181818181818	-475.0	-0.8181818181818182	-900.0	-0.15816326530612246	155.0	95.26512095109638	39923.0	0.9999805693435848	0.005772553460897152	-3.9967726178490417E-4	0.0023192283000160333	1.5228159530899375E12	1.522815953105E12	27.0666214667408	25965.0	1527.34375	50048.0	3843.223443223443	2623.0	0.0	0.0	
0.015581042583297889	0.926446437464876	-0.06521969809365423	0.3707335828982543	-0.13358778625954199	-123.0	-0.05343511450381679	25.0	-0.12595419847328243	93.0	0.3734939759036145	1235.0	9.783132530120483	2016.0	0.03614457831325302	2044.0	0.43363636363636365	-477.0	-0.8090909090909091	-890.0	-0.15612244897959185	153.0	95.26512095109638	39923.0	0.999969654042483	0.007217427689171556	-5.08090307075519E-4	0.0028881786558945925	1.52281595309775E12	1.522815953111E12	27.0666214667408	25965.0	1535.15625	50304.0	3860.8058608058604	2635.0	0.0	0.0	
0.018705768434835724	0.9268545821114729	-0.06655784246211338	0.369473459432105	0.04580152671755725	-111.0	-0.22595419847328238	15.0	-0.1465648854961831	96.0	0.3734939759036145	1235.0	9.783132530120483	2016.0	0.03614457831325302	2044.0	0.43272727272727274	-476.0	-0.8172727272727273	-899.0	-0.15918367346938778	156.0	95.26512095109638	39923.0	0.9999562620972455	0.00866863720799029	-6.224987185543637E-4	0.003455592106478718	1.5228159531055625E12	1.522815953124E12	27.0666214667408	25965.0	1542.96875	50560.0	3862.271062271062	2636.0	0.0	0.0	
0.021821788211218874	0.9275098242312584	-0.06647413235807781	0.3678406117877257	0.022900763358778626	-126.0	0.040712468193384296	16.0	-0.38167938931297707	113.0	0.3734939759036145	1236.0	9.771084337349398	2016.0	0.04819277108433735	2043.0	0.4381818181818182	-482.0	-0.8145454545454546	-896.0	-0.15612244897959185	153.0	95.26809801234246	39924.0	0.9999404767854196	0.010119760682423434	-7.252778282893535E-4	0.00401339033109786	1.522815953113375E12	1.522815953128E12	27.0666214667408	25965.0	1550.78125	50816.0	3859.340659340659	2634.0	0.0	0.0	
0.024946744840982644	0.9278994805971426	-0.06570884503055932	0.3669944162952185	0.09596510359869137	-125.0	0.019629225736096056	11.0	-0.20501635768811344	105.0	0.30120481927710846	1236.0	9.771084337349398	2022.0	-0.012048192771084338	2048.0	0.42727272727272725	-470.0	-0.8136363636363636	-895.0	-0.15714285714285717	154.0	95.26809801234246	39924.0	0.9999222084988371	0.01157373566817259	-8.195896423556546E-4	0.004577539329112144	1.5228159531211875E12	1.522815953129E12	27.0666214667408	25965.0	1558.59375	51072.0	3840.29304029304	2621.0	0.0	0.0	
0.028078535059282247	0.9282119572911551	-0.06554839288641855	0.3662321265711874	0.16030534351145037	-119.0	-0.07442748091603053	6.0	-0.10305343511450381	100.0	0.3373493975903615	1235.0	9.783132530120483	2019.0	-0.04819277108433735	2051.0	0.43454545454545457	-478.0	-0.8090909090909091	-890.0	-0.15714285714285717	154.0	95.26512095109638	39923.0	0.9999014511023057	0.01303098791258269	-9.202211937507007E-4	0.0051414619010899405	1.522815953129E12	1.522815953136E12	27.0666214667408	25965.0	1566.40625	51328.0	3846.1538461538457	2625.0	0.0	0.0	
0.031206272463428185	0.9283774431962437	-0.06564637035820058	0.3657948564759412	0.06615776081424937	-119.0	-0.06615776081424929	11.0	-0.015267175572519083	95.0	0.3614457831325301	1236.0	9.771084337349398	2017.0	-0.10843373493975904	2056.0	0.43272727272727274	-476.0	-0.8154545454545454	-897.0	-0.16020408163265307	157.0	95.26512095109638	39923.0	0.9998782735395026	0.014485011955610807	-0.0010242476984439054	0.005707315390077743	1.5228159531368125E12	1.522815953143E12	27.0666214667408	25965.0	1574.21875	51584.0	3850.5494505494503	2628.0	0.0	0.0	
0.03430192326146854	0.9285971223194428	-0.06544764163936463	0.36527248818482533	-0.3374045801526718	-127.0	0.06259541984732815	37.0	-0.24274809160305352	110.0	0.3614457831325301	1237.0	9.759036144578314	2017.0	-0.0963855421686747	2055.0	0.4318181818181818	-475.0	-0.8118181818181818	-893.0	-0.15816326530612246	155.0	95.26512095109638	39923.0	0.9998529258628456	0.015925552823730375	-0.0011224349602902638	0.006264467297844722	1.522815953144625E12	1.522815953156E12	27.0666214667408	25965.0	1582.03125	51840.0	3857.8754578754574	2633.0	0.0	0.0	
0.03740737313057284	0.9289524814048432	-0.06533665706902954	0.36438771732273745	-0.154059680777238	-129.0	0.08743927827897303	27.0	-0.2970159611380985	115.0	0.3855421686746988	1235.0	9.783132530120483	2015.0	-0.0963855421686747	2055.0	0.43636363636363634	-480.0	-0.8027272727272727	-883.0	-0.16020408163265307	157.0	95.26809801234246	39924.0	0.9998250911535224	0.01737382303025167	-0.0012219651058888302	0.006814996290863672	1.5228159531524375E12	1.522815953162E12	27.0666214667408	25965.0	1589.84375	52096.0	3843.223443223443	2623.0	0.0	0.0	
0.04051071557697498	0.9292952701670589	-0.06457221943194467	0.3636491844112655	-0.1564885496183206	-134.0	0.1564885496183206	28.0	-0.3486005089058523	120.0	0.3132530120481928	1235.0	9.783132530120483	2021.0	-0.07228915662650603	2053.0	0.43272727272727274	-476.0	-0.8072727272727273	-888.0	-0.15714285714285717	154.0	95.27107507436999	39925.0	0.9997948672540544	0.01882192108531944	-0.0013078439732438392	0.007365340674228515	1.52281595316025E12	1.522815953172E12	27.0666214667408	25965.0	1597.65625	52352.0	3847.6190476190473	2626.0	0.0	0.0	
0.04360499620123689	0.9294542437770438	-0.06412800347163448	0.36332135623338546	-0.373458602466236	-132.0	0.1139166177334117	43.0	-0.15384615384615388	109.0	0.3373493975903615	1235.0	9.783132530120483	2019.0	-0.024096385542168676	2049.0	0.4354545454545454	-479.0	-0.8127272727272727	-894.0	-0.15918367346938778	156.0	95.27107507436999	39925.0	0.9997623349529954	0.020262818977331808	-0.0013980399082831418	0.007920685629492634	1.5228159531680625E12	1.522815953181E12	27.0666214667408	25965.0	1605.46875	52608.0	3850.5494505494503	2628.0	0.0	0.0	
0.04670709589549901	0.9296284578287513	-0.06304528271705732	0.36306503924575567	-0.23991275899672848	-151.0	0.39585605234460197	36.0	-0.11232279171210474	107.0	0.30120481927710846	1236.0	9.771084337349398	2022.0	0.060240963855421686	2042.0	0.43272727272727274	-476.0	-0.8118181818181818	-893.0	-0.15612244897959185	153.0	95.26512095109638	39923.0	0.9997273182925795	0.02170814940984018	-0.0014721972044659665	0.008478086111783181	1.522815953175875E12	1.522815953182E12	27.0666214667408	25965.0	1613.28125	52864.0	3859.340659340659	2634.0	0.0	0.0	
0.04981379854860759	0.9297640315599217	-0.06269985363084685	0.36277758195879467	-0.17811704834605593	-128.0	0.018320610687022943	33.0	-0.13536895674300245	109.0	0.3253012048192771	1234.0	9.795180722891567	2020.0	0.10843373493975904	2038.0	0.43	-473.0	-0.8145454545454546	-896.0	-0.15510204081632656	152.0	95.26214389063172	39922.0	0.9996898392188811	0.02315514484662082	-0.0015614974804396007	0.009034730503899226	1.5228159531836875E12	1.522815953188E12	27.0666214667408	25965.0	1621.09375	53120.0	3843.223443223443	2623.0	0.0	0.0	
0.052918328336795106	0.9299713848883854	-0.06255400096146137	0.3622709210695133	-0.16698473282442747	-128.0	0.01717557251908397	33.0	-0.23377862595419846	116.0	0.3614457831325301	1235.0	9.783132530120483	2017.0	0.1566265060240964	2034.0	0.43363636363636365	-477.0	-0.8090909090909091	-890.0	-0.15714285714285717	154.0	95.26214389063172	39922.0	0.9996499767370418	0.024603394555890553	-0.001654933465387331	0.00958426737858054	1.5228159531915E12	1.5228159532E12	27.0666214667408	25965.0	1628.90625	53376.0	3849.0842490842488	2627.0	0.0	0.0	
0.05602176514922071	0.9302428875789592	-0.06293458477464944	0.36150713429715814	-0.12662775033677592	-101.0	-0.39604849573417145	31.0	-0.4337674000898068	130.0	0.3734939759036145	1235.0	9.783132530120483	2016.0	0.16867469879518074	2033.0	0.43636363636363634	-480.0	-0.8090909090909091	-890.0	-0.15714285714285717	154.0	95.26214389063172	39922.0	0.9996077208785304	0.026053517004938045	-0.0017626227477991535	0.010124809763748915	1.5228159531993125E12	1.522815953203E12	27.0666214667408	25965.0	1636.71875	53632.0	3846.1538461538457	2625.0	0.0	0.0	
0.059141432464095305	0.9304529170142907	-0.06318431990180103	0.36092258302551705	0.09414758269720097	-119.0	-0.09923664122137404	17.0	-0.27226463104325693	121.0	0.43373493975903615	1235.0	9.783132530120483	2011.0	0.22891566265060243	2028.0	0.43454545454545457	-478.0	-0.8154545454545454	-897.0	-0.15816326530612246	155.0	95.27702920076932	39927.0	0.9995628182291262	0.027510149496493615	-0.001868133308572481	0.01067118393003018	1.522815953207125E12	1.522815953215E12	27.0666214667408	25965.0	1644.53125	53888.0	3859.340659340659	2634.0	0.0	0.0	
0.06226326724578551	0.9307770047906295	-0.06294771295676739	0.3601274118794997	0.22659702691844116	-125.0	-0.002410606669345187	8.0	-0.48694254720771385	136.0	0.3614457831325301	1235.0	9.783132530120483	2017.0	0.24096385542168675	2027.0	0.4318181818181818	-475.0	-0.8136363636363636	-895.0	-0.15714285714285717	154.0	95.27702920076932	39927.0	0.9995154498305199	0.02897192833966644	-0.0019593486082518626	0.011209543764426531	1.5228159532149375E12	1.522815953252E12	27.0666214667408	25965.0	1652.34375	54144.0	3841.7582417582416	2622.0	0.0	0.0	
0.06539453302675768	0.9311277773495112	-0.06255245925377119	0.359288535983751	0.36793893129770994	-123.0	-0.032824427480916116	-2.0	-0.4473282442748091	135.0	0.3132530120481928	1234.0	9.795180722891567	2021.0	0.24096385542168675	2027.0	0.4318181818181818	-475.0	-0.8090909090909091	-890.0	-0.16020408163265307	157.0	95.27107507436999	39925.0	0.9994654920045309	0.03043990847603473	-0.002044930009558678	0.011745659852362724	1.52281595322275E12	1.522815953254E12	27.0666214667408	25965.0	1660.15625	54400.0	3846.1538461538457	2625.0	0.0	0.0	
0.06852515721625249	0.9314066187521498	-0.061674619293564395	0.3587170917025557	0.3198836786623046	-133.0	0.12141039621955647	0.0	-0.2886223191566702	126.0	0.24096385542168675	1235.0	9.783132530120483	2027.0	0.21686746987951808	2029.0	0.4354545454545454	-479.0	-0.8145454545454546	-896.0	-0.15510204081632656	152.0	95.27107507436999	39925.0	0.9994130952720743	0.03190614906880293	-0.0021127180732068347	0.01228816799339797	1.5228159532305625E12	1.522815953256E12	27.0666214667408	25965.0	1667.96875	54656.0	3859.340659340659	2634.0	0.0	0.0	
0.07165323888451947	0.931718993977013	-0.06097295059259373	0.3580251605101204	0.32061068702290074	-122.0	-0.05204718945176956	-1.0	-0.3976405274115198	134.0	0.22891566265060243	1235.0	9.783132530120483	2028.0	0.24096385542168675	2027.0	0.4381818181818182	-482.0	-0.8145454545454546	-896.0	-0.15714285714285717	154.0	95.27107507436999	39925.0	0.9993582953122341	0.03337320141156086	-0.0021839874188869257	0.012824087379724966	1.522815953238375E12	1.522815953258E12	27.0666214667408	25965.0	1675.78125	54912.0	3871.0622710622706	2642.0	0.0	0.0	
0.07479262786810029	0.9319825532861652	-0.060483288421299825	0.35742172876267775	0.4593428476601394	-109.0	-0.24825755061400595	-11.0	-0.30401593096581486	129.0	0.21686746987951808	1234.0	9.795180722891567	2029.0	0.26506024096385544	2025.0	0.4290909090909091	-472.0	-0.8172727272727273	-899.0	-0.15918367346938778	156.0	95.27702920076932	39927.0	0.9993008393382046	0.03484458921665699	-0.0022613248843357543	0.013363139977169546	1.5228159532461875E12	1.522815953259E12	27.0666214667408	25965.0	1683.59375	55168.0	3846.1538461538457	2625.0	0.0	0.0	
0.07795607524214739	0.9321833039922989	-0.05988314128778686	0.35699901561135283	0.7302798982188295	-118.0	-0.10050890585241723	-30.0	0.029262086513994767	108.0	0.22891566265060243	1235.0	9.783132530120483	2028.0	0.28915662650602414	2023.0	0.4318181818181818	-475.0	-0.8109090909090909	-892.0	-0.15714285714285717	154.0	95.26809801234246	39924.0	0.9992404524631618	0.036325476122318345	-0.002333536343831458	0.013911597817448667	1.522815953254E12	1.522815953267E12	27.0666214667408	25965.0	1691.40625	55424.0	3853.4798534798533	2630.0	0.0	0.0	
0.08112066583734366	0.9324346953662669	-0.05960949086480019	0.35638777683304	0.7926717557251909	-98.0	-0.4018320610687022	-36.0	-0.10931297709923658	117.0	0.2530120481927711	1234.0	9.795180722891567	2026.0	0.27710843373493976	2024.0	0.4381818181818182	-482.0	-0.8054545454545454	-886.0	-0.15714285714285717	154.0	95.26809801234246	39924.0	0.9991775424608966	0.037809492690240476	-0.0024171179175570133	0.014451243727869722	1.5228159532618125E12	1.52281595327E12	27.0666214667408	25965.0	1699.21875	55680.0	3863.7362637362635	2637.0	0.0	0.0	
0.08428040860622812	0.9326707275197366	-0.05933438896590417	0.35581560437075105	0.7621843805049912	-99.0	-0.37110980622431	-36.0	-0.19671168526130361	123.0	0.26506024096385544	1235.0	9.783132530120483	2025.0	0.27710843373493976	2024.0	0.43454545454545457	-478.0	-0.8090909090909091	-890.0	-0.15306122448979592	150.0	95.27405213717894	39926.0	0.9991122329767994	0.03929130370018079	-0.002499623316069671	0.014989704898075842	1.522815953269625E12	1.522815953285E12	27.0666214667408	25965.0	1707.03125	55936.0	3825.6410256410254	2611.0	0.0	0.0	
0.08743941538216674	0.9329255507144275	-0.059198962978082595	0.35516953642820515	0.8102912072377721	-99.0	-0.35736499858637255	-41.0	-0.3268306474413346	132.0	0.30120481927710846	1235.0	9.783132530120483	2022.0	0.27710843373493976	2024.0	0.4309090909090909	-474.0	-0.8172727272727273	-899.0	-0.15714285714285717	154.0	95.26512095109638	39923.0	0.9990444457991313	0.04077424007657328	-0.002587336928336938	0.015522962078934213	1.5228159532774375E12	1.522815953292E12	27.0666214667408	25965.0	1714.84375	56192.0	3843.223443223443	2623.0	0.0	0.0	
0.09061935674309311	0.9332258936302582	-0.05918034905763002	0.3543827277724692	1.1630316248636858	-98.0	-0.35986913849509267	-66.0	-0.3609596510359868	135.0	0.3493975903614458	1235.0	9.783132530120483	2018.0	0.24096385542168675	2027.0	0.4318181818181818	-475.0	-0.8090909090909091	-890.0	-0.15816326530612246	155.0	95.26512095109638	39923.0	0.9989736921223046	0.042269698574494786	-0.0026805251903892304	0.01605147390915025	1.52281595328525E12	1.522815953296E12	27.0666214667408	25965.0	1722.65625	56448.0	3841.7582417582416	2622.0	0.0	0.0	
0.09380455986915175	0.9335312656447893	-0.05922039828187333	0.3535708139691986	1.2297973150829165	-90.0	-0.46959726243748356	-73.0	-0.3027112397999472	132.0	0.3493975903614458	1236.0	9.771084337349398	2018.0	0.16867469879518074	2033.0	0.4354545454545454	-479.0	-0.8027272727272727	-883.0	-0.16020408163265307	157.0	95.26809801234246	39924.0	0.9989002896880608	0.04376869339350415	-0.002776553448641296	0.016577197914009606	1.5228159532930625E12	1.522815953304E12	27.0666214667408	25965.0	1730.46875	56704.0	3846.1538461538457	2625.0	0.0	0.0	
0.09699337230910532	0.9337772171568447	-0.05906995178515044	0.35294595834896086	1.2651399491094146	-100.0	-0.3012722646310433	-78.0	-0.18575063613231538	125.0	0.3373493975903615	1235.0	9.783132530120483	2019.0	0.0963855421686747	2039.0	0.43454545454545457	-478.0	-0.8172727272727273	-899.0	-0.15612244897959185	153.0	95.27405213717894	39926.0	0.9988242661799445	0.045267351505774316	-0.0028635741178491504	0.01711000061424842	1.522815953300875E12	1.522815953306E12	27.0666214667408	25965.0	1738.28125	56960.0	3822.7106227106224	2609.0	0.0	0.0	
0.10016836713708535	0.9341029302791394	-0.05878194121034244	0.35213122416437526	1.178527456291554	-101.0	-0.27628662890913563	-75.0	-0.48510219157842904	145.0	0.30120481927710846	1235.0	9.783132530120483	2022.0	0.04819277108433735	2043.0	0.4354545454545454	-479.0	-0.8054545454545454	-886.0	-0.15510204081632656	152.0	95.27405213717894	39926.0	0.998746049431141	0.04676422614652315	-0.002942814868668303	0.017628832611791486	1.5228159533086875E12	1.522815953312E12	27.0666214667408	25965.0	1746.09375	57216.0	3840.29304029304	2621.0	0.0	0.0	
0.10333551282285795	0.9343709511640309	-0.058274368065285	0.3515039454223701	0.9737595419847328	-111.0	-0.11498091603053434	-64.0	-0.19513358778625953	127.0	0.2530120481927711	1233.0	9.807228915662652	2026.0	0.012048192771084338	2046.0	0.44181818181818183	-486.0	-0.8054545454545454	-886.0	-0.15816326530612246	155.0	95.27107507436999	39925.0	0.9986655183862351	0.04825537393498659	-0.0030095664022004756	0.018153340816994084	1.5228159533165E12	1.522815953324E12	27.0666214667408	25965.0	1753.90625	57472.0	3846.1538461538457	2625.0	0.0	0.0	
0.10649832800240067	0.9346159852253936	-0.05769911695019515	0.3509469647458875	0.9289845015035852	-108.0	-0.15729817256534806	-63.0	-0.21975479990747182	129.0	0.20481927710843376	1235.0	9.783132530120483	2030.0	0.024096385542168676	2045.0	0.4318181818181818	-475.0	-0.8063636363636364	-887.0	-0.15510204081632656	152.0	95.26512095109638	39923.0	0.9985825982311667	0.04974400412921898	-0.00307097798154032	0.018678802352440196	1.5228159533243125E12	1.522815953338E12	27.0666214667408	25965.0	1761.71875	57728.0	3844.688644688644	2624.0	0.0	0.0	
0.10964629502953617	0.9348615114994485	-0.05701528217939974	0.350404354874247	0.7642568477772789	-118.0	0.0	-54.0	-0.3354288280197575	137.0	0.1927710843373494	1234.0	9.795180722891567	2031.0	0.04819277108433735	2043.0	0.43454545454545457	-478.0	-0.8172727272727273	-899.0	-0.15510204081632656	152.0	95.26512095109638	39923.0	0.9984975876062515	0.05122638074039058	-0.0031241916765384556	0.019200648090740978	1.522815953332125E12	1.522815953351E12	27.0666214667408	25965.0	1769.53125	57984.0	3859.340659340659	2634.0	0.0	0.0	
0.11281342720523947	0.9351409632910587	-0.05661625102701955	0.34972271715563064	1.078298800436205	-90.0	-0.42748091603053434	-76.0	-0.4021810250817882	142.0	0.20481927710843376	1234.0	9.795180722891567	2030.0	0.04819277108433735	2043.0	0.4309090909090909	-474.0	-0.7990909090909091	-879.0	-0.15306122448979592	150.0	95.26809801234246	39924.0	0.9984095630907609	0.05272026128512421	-0.0031918434378322056	0.01971625000887685	1.5228159533399375E12	1.522815953353E12	27.0666214667408	25965.0	1777.34375	58240.0	3838.8278388278386	2620.0	0.0	0.0	
0.11598623698348805	0.9353626730280934	-0.056342918749733815	0.3491735176276053	1.078880407124682	-82.0	-0.53774385072095	-78.0	-0.14673452078032234	126.0	0.21686746987951808	1234.0	9.795180722891567	2029.0	0.04819277108433735	2043.0	0.4318181818181818	-475.0	-0.8063636363636364	-887.0	-0.15714285714285717	154.0	95.27107507436999	39925.0	0.9983188703478979	0.054214197520604045	-0.003265670326673032	0.02023831247439414	1.52281595334775E12	1.522815953367E12	27.0666214667408	25965.0	1785.15625	58496.0	3847.6190476190473	2626.0	0.0	0.0	
0.11914405808509605	0.9356112220165491	-0.05618801288675005	0.3485319905611345	0.9275840726222403	-79.0	-0.5690117598514546	-70.0	-0.3412420053641428	139.0	0.26506024096385544	1236.0	9.771084337349398	2025.0	0.024096385542168676	2045.0	0.4354545454545454	-479.0	-0.8009090909090909	-881.0	-0.15714285714285717	154.0	95.27107507436999	39925.0	0.9982261113729114	0.05570329835284219	-0.0033452544946373235	0.020750479471475868	1.5228159533555625E12	1.522815953368E12	27.0666214667408	25965.0	1792.96875	58752.0	3854.945054945055	2631.0	0.0	0.0	
0.12230883946528849	0.9357890639567858	-0.05639072997572402	0.3480214265698411	0.9642426677380476	-53.0	-0.9509843310566491	-74.0	-0.17959019686621144	129.0	0.3373493975903615	1234.0	9.795180722891567	2019.0	0.0	2047.0	0.43727272727272726	-481.0	-0.8172727272727273	-899.0	-0.15510204081632656	152.0	95.26809801234246	39924.0	0.9981306511749224	0.05719197328033337	-0.0034463932591747353	0.021269784929101296	1.522815953363375E12	1.522815953403E12	27.0666214667408	25965.0	1800.78125	59008.0	3859.340659340659	2634.0	0.0	0.0	
0.1254785115919178	0.9360535409171613	-0.05650364691988698	0.34729109752659354	1.1990604815032295	-52.0	-0.9418672930123314	-91.0	-0.5566647093364652	154.0	0.3132530120481928	1235.0	9.783132530120483	2021.0	-0.03614457831325302	2050.0	0.43636363636363634	-480.0	-0.8190909090909091	-901.0	-0.15612244897959185	153.0	95.26512095109638	39923.0	0.998032538380652	0.05868878291696432	-0.003542671570740329	0.0217744935954858	1.5228159533711875E12	1.522815953404E12	27.0666214667408	25965.0	1808.59375	59264.0	3843.223443223443	2623.0	0.0	0.0	
0.12863666462392975	0.9362747639907647	-0.05644113511973501	0.3467044340362558	0.9858778625954197	-62.0	-0.7656488549618321	-79.0	-0.39007633587786233	144.0	0.27710843373493976	1235.0	9.783132530120483	2024.0	-0.1566265060240964	2060.0	0.4290909090909091	-472.0	-0.8109090909090909	-892.0	-0.15306122448979592	150.0	95.26512095109638	39923.0	0.997932289028913	0.06017812008389658	-0.0036276972717170755	0.02228407927617603	1.522815953379E12	1.522815953405E12	27.0666214667408	25965.0	1816.40625	59520.0	3847.6190476190473	2626.0	0.0	0.0	
0.13180020540148774	0.9365013866497559	-0.05636665182393219	0.3461039632325662	1.0534351145038168	-56.0	-0.8385775460808043	-85.0	-0.3042264010426363	139.0	0.2530120481927711	1235.0	9.783132530120483	2026.0	-0.30120481927710846	2072.0	0.43272727272727274	-476.0	-0.8118181818181818	-893.0	-0.15714285714285717	154.0	95.26809801234246	39924.0	0.9978293739564437	0.06167087731011538	-0.003711880108850044	0.02279178157911576	1.5228159533868125E12	1.522815953407E12	27.0666214667408	25965.0	1824.21875	59776.0	3853.4798534798533	2630.0	0.0	0.0	
0.13493419161035805	0.9367345940836922	-0.05615454056795459	0.3455068274585388	0.6924754634678295	-78.0	-0.48273355143584173	-63.0	-0.4801890221737547	151.0	0.27710843373493976	1236.0	9.771084337349398	2024.0	-0.3855421686746988	2079.0	0.43454545454545457	-478.0	-0.8127272727272727	-894.0	-0.15612244897959185	153.0	95.26512095109638	39923.0	0.9977249586510554	0.06315082873075537	-0.0037857102708265303	0.023292662216114774	1.522815953394625E12	1.522815953408E12	27.0666214667408	25965.0	1832.03125	60032.0	3859.340659340659	2634.0	0.0	0.0	
0.1380625138190534	0.9368842383202524	-0.05563536502575647	0.3451849216660458	0.4626309249067989	-115.0	0.09337830640866347	-49.0	0.050062133854074105	117.0	0.26506024096385544	1234.0	9.795180722891567	2025.0	-0.43373493975903615	2083.0	0.4390909090909091	-483.0	-0.8081818181818182	-889.0	-0.15510204081632656	152.0	95.26512095109638	39923.0	0.997618288810365	0.06462294322746313	-0.0038375296418101026	0.02380962842943687	1.5228159534024375E12	1.522815953409E12	27.0666214667408	25965.0	1839.84375	60288.0	3844.688644688644	2624.0	0.0	0.0	
0.1411680331486164	0.9370199351393723	-0.055096077180746515	0.3449029768365001	0.1925746009715474	-135.0	0.39659958362248426	-32.0	-0.1037473976405272	127.0	0.3132530120481928	1234.0	9.795180722891567	2021.0	-0.39759036144578314	2080.0	0.42818181818181816	-471.0	-0.8109090909090909	-892.0	-0.15306122448979592	150.0	95.26809801234246	39924.0	0.9975099823534742	0.0660837260617544	-0.003885674076878818	0.024324427885044672	1.52281595341025E12	1.522815953423E12	27.0666214667408	25965.0	1847.65625	60544.0	3853.4798534798533	2630.0	0.0	0.0	
0.1442731019878706	0.9371259937727547	-0.054570247261307187	0.3446983607580192	0.11195928753180644	-140.0	0.46412213740458025	-27.0	0.15810008481764204	110.0	0.3253012048192771	1236.0	9.771084337349398	2020.0	-0.3493975903614458	2076.0	0.43454545454545457	-478.0	-0.81	-891.0	-0.15714285714285717	154.0	95.27107507436999	39925.0	0.9973992870724241	0.06754242324017228	-0.0039330962552916226	0.024843791258827633	1.5228159534180625E12	1.522815953429E12	27.0666214667408	25965.0	1855.46875	60800.0	3837.362637362637	2619.0	0.0	0.0	
0.14736215694292198	0.9372444817918884	-0.054235109491052085	0.3444289973987446	-0.05841354132094246	-130.0	0.3013607699966808	-16.0	-0.04381015599070683	123.0	0.39759036144578314	1236.0	9.771084337349398	2014.0	-0.3373493975903615	2075.0	0.4390909090909091	-483.0	-0.8054545454545454	-886.0	-0.15306122448979592	150.0	95.27107507436999	39925.0	0.9972867771558321	0.06899471706218911	-0.003992486599673434	0.025354943864920525	1.522815953425875E12	1.52281595343E12	27.0666214667408	25965.0	1863.28125	61056.0	3860.8058608058604	2635.0	0.0	0.0	
0.15042795367428702	0.937395895633906	-0.05384890649169241	0.3440773606594767	-0.3014455091765473	-122.0	0.17281143414000316	0.0	-0.33295436089004365	142.0	0.3253012048192771	1235.0	9.783132530120483	2020.0	-0.3132530120481928	2073.0	0.43636363636363634	-480.0	-0.8127272727272727	-894.0	-0.15510204081632656	152.0	95.26214389063172	39922.0	0.9971727620618727	0.07043881558821229	-0.004046372735001351	0.0258550329358782	1.5228159534336875E12	1.522815953441E12	27.0666214667408	25965.0	1871.09375	61312.0	3841.7582417582416	2622.0	0.0	0.0	
0.15349793179586813	0.9375530219048667	-0.05319026620921143	0.3437515479203385	-0.21882951653944002	-130.0	0.291348600508906	-5.0	-0.2802162849872772	139.0	0.1927710843373494	1235.0	9.783132530120483	2031.0	-0.28915662650602414	2071.0	0.42818181818181816	-471.0	-0.8090909090909091	-890.0	-0.15306122448979592	150.0	95.26809801234246	39924.0	0.9970562435353252	0.07188560383852063	-0.004078291377070304	0.026356682785229287	1.5228159534415E12	1.522815953449E12	27.0666214667408	25965.0	1878.90625	61568.0	3843.223443223443	2623.0	0.0	0.0	
0.1565528115105546	0.9376838458417448	-0.05259691363866978	0.3434859093516405	-0.4891727683439789	-131.0	0.3006698862751207	13.0	-0.13709300514098777	130.0	0.21686746987951808	1234.0	9.795180722891567	2029.0	-0.28915662650602414	2071.0	0.43272727272727274	-476.0	-0.8081818181818182	-889.0	-0.15612244897959185	153.0	95.26809801234246	39924.0	0.9969379661035292	0.07332358962976811	-0.004112894264454528	0.02685939399787639	1.5228159534493125E12	1.522815953457E12	27.0666214667408	25965.0	1886.71875	61824.0	3846.1538461538457	2625.0	0.0	0.0	
0.15960046659384208	0.9378029554369912	-0.051784466544698995	0.34328411818540344	-0.6015267175572521	-157.0	0.6916030534351144	21.0	-0.012213740458015007	122.0	0.18072289156626506	1233.0	9.807228915662652	2032.0	-0.2530120481927711	2068.0	0.4354545454545454	-479.0	-0.8054545454545454	-886.0	-0.15510204081632656	152.0	95.27405213717894	39926.0	0.996817650707904	0.07475749206255237	-0.004128027987366421	0.02736508729436376	1.522815953457125E12	1.522815953464E12	27.0666214667408	25965.0	1894.53125	62080.0	3860.8058608058604	2635.0	0.0	0.0	
0.16265332632992377	0.937943161824844	-0.05090877452380141	0.3430319545792961	-0.46759467145636885	-157.0	0.6780422092501124	13.0	-0.08831013321359095	127.0	0.13253012048192772	1232.0	9.819277108433736	2036.0	-0.22891566265060243	2066.0	0.4354545454545454	-479.0	-0.8054545454545454	-886.0	-0.15408163265306124	151.0	95.27107507436999	39925.0	0.9966948092499978	0.0761957293077431	-0.004135678323468484	0.02786690176852222	1.5228159534649375E12	1.522815953472E12	27.0666214667408	25965.0	1902.34375	62336.0	3844.688644688644	2624.0	0.0	0.0	
0.1656938650595746	0.9380476575616157	-0.05014555404157898	0.3428585941070583	-0.7028772753963592	-142.0	0.4359953024075161	29.0	0.05079271873164986	118.0	0.10843373493975904	1234.0	9.795180722891567	2038.0	-0.13253012048192772	2058.0	0.43	-473.0	-0.8081818181818182	-889.0	-0.15612244897959185	153.0	95.27107507436999	39925.0	0.9965701553195205	0.07762550125582746	-0.004149654590415166	0.028372300717227163	1.52281595347275E12	1.522815953483E12	27.0666214667408	25965.0	1910.15625	62592.0	3853.4798534798533	2630.0	0.0	0.0	
0.16873459944352928	0.9381961023015671	-0.04939585871609626	0.3425611226743284	-0.5980123865764081	-131.0	0.25983004464928716	23.0	-0.1791732680397522	133.0	0.07228915662650603	1235.0	9.783132530120483	2041.0	-0.08433734939759037	2054.0	0.43363636363636365	-477.0	-0.8054545454545454	-886.0	-0.15612244897959185	153.0	95.27107507436999	39925.0	0.996443189854047	0.07905920533984033	-0.004162453166873568	0.028866683705589216	1.5228159534805625E12	1.522815953489E12	27.0666214667408	25965.0	1917.96875	62848.0	3853.4798534798533	2630.0	0.0	0.0	
0.17178877899664227	0.938296795878917	-0.04864475225040527	0.34239277288203374	-0.5106022052586937	-132.0	0.2702855527283009	18.0	0.22109132032796175	107.0	0.060240963855421686	1234.0	9.795180722891567	2042.0	-0.04819277108433735	2051.0	0.4354545454545454	-479.0	-0.8081818181818182	-889.0	-0.15612244897959185	153.0	95.26809801234246	39924.0	0.9963133443942312	0.08049536478384334	-0.004173175368832185	0.029373468260300396	1.522815953488375E12	1.5228159535E12	27.0666214667408	25965.0	1925.78125	63104.0	3859.340659340659	2634.0	0.0	0.0	
0.17483403250572857	0.9383446696173638	-0.048003204689727096	0.3423521189363482	-0.7150589868147119	-132.0	0.2653712699514225	32.0	0.4308119361554474	93.0	0.12048192771084337	1235.0	9.783132530120483	2037.0	0.0	2047.0	0.43636363636363634	-480.0	-0.8136363636363636	-895.0	-0.15204081632653063	149.0	95.26809801234246	39924.0	0.9961815651862567	0.08192285934470984	-0.004190954468250392	0.029889299096698182	1.5228159534961875E12	1.522815953501E12	27.0666214667408	25965.0	1933.59375	63360.0	3844.688644688644	2624.0	0.0	0.0	
0.17787875304308245	0.938399640022538	-0.047568826592471275	0.34226206675909654	-0.6717557251908397	-137.0	0.3369683751363142	30.0	0.31624863685932375	100.0	0.26506024096385544	1235.0	9.783132530120483	2025.0	0.08433734939759037	2040.0	0.43454545454545457	-478.0	-0.81	-891.0	-0.15408163265306124	151.0	95.26512095109638	39923.0	0.996047500109012	0.08335069046859789	-0.004225166306722213	0.030400458790558443	1.522815953504E12	1.522815953504E12	27.0666214667408	25965.0	1941.40625	63616.0	3841.7582417582416	2622.0	0.0	0.0	
0.18095899892966721	0.9384555870152597	-0.04736306418663078	0.3421371820639841	-0.15615374313646727	-129.0	0.20891924467657702	-3.0	0.4481049953127092	91.0	0.3855421686746988	1236.0	9.771084337349398	2015.0	0.060240963855421686	2042.0	0.4309090909090909	-474.0	-0.8036363636363636	-884.0	-0.15510204081632656	152.0	95.26214389063172	39922.0	0.9959095218028123	0.08479518466031725	-0.004279541652639243	0.03091418063218838	1.5228159535118125E12	1.522815953521E12	27.0666214667408	25965.0	1949.21875	63872.0	3844.688644688644	2624.0	0.0	0.0	
0.18402200098689778	0.9385312208490335	-0.04733127668821186	0.3419340546636094	-0.3214003685180309	-120.0	0.06791260858120561	8.0	0.1961042379573573	107.0	0.4819277108433735	1235.0	9.783132530120483	2007.0	-0.060240963855421686	2052.0	0.43727272727272726	-481.0	-0.8072727272727273	-888.0	-0.15408163265306124	151.0	95.26214389063172	39922.0	0.995769973450042	0.08623340066156285	-0.004348855803417534	0.031417320682166974	1.522815953519625E12	1.522815953553E12	27.0666214667408	25965.0	1957.03125	64128.0	3822.7106227106224	2609.0	0.0	0.0	
0.1870815937182018	0.9386369137560913	-0.04740510378369273	0.3416335760280117	-0.285418553499806	-111.0	-0.07064303273385943	6.0	-0.005692845128735778	120.0	0.5180722891566265	1236.0	9.771084337349398	2004.0	-0.18072289156626506	2062.0	0.43727272727272726	-481.0	-0.8136363636363636	-895.0	-0.15918367346938778	156.0	95.25916683094849	39921.0	0.9956282487483795	0.08767285972701841	-0.004427847396008584	0.03191009446803698	1.5228159535274375E12	1.522815953555E12	27.0666214667408	25965.0	1964.84375	64384.0	3841.7582417582416	2622.0	0.0	0.0	
0.19012099587435993	0.9387517972881764	-0.047364332576627505	0.34132342885865186	-0.5096692111959288	-122.0	0.09847328244274813	21.0	-0.17353689567430014	131.0	0.4819277108433735	1235.0	9.783132530120483	2007.0	-0.20481927710843376	2064.0	0.43	-473.0	-0.8118181818181818	-893.0	-0.15714285714285717	154.0	95.26809801234246	39924.0	0.9954851522704711	0.08910387384194078	-0.004495698998081373	0.03239753024407128	1.52281595353525E12	1.522815953557E12	27.0666214667408	25965.0	1972.65625	64640.0	3849.0842490842488	2627.0	0.0	0.0	
0.1931460919311003	0.9388751712373904	-0.04713857015413514	0.34101520206254676	-0.6845200850957327	-139.0	0.35640095106995356	33.0	-0.20122637967713677	133.0	0.42168674698795183	1236.0	9.771084337349398	2012.0	-0.18072289156626506	2062.0	0.4318181818181818	-475.0	-0.8054545454545454	-886.0	-0.15612244897959185	153.0	95.26809801234246	39924.0	0.9953404464726416	0.09052916397915713	-0.004545242517812525	0.0328817100426867	1.5228159535430625E12	1.522815953558E12	27.0666214667408	25965.0	1980.46875	64896.0	3859.340659340659	2634.0	0.0	0.0	
0.19616171718687914	0.9389997043063518	-0.04687888939083964	0.3407079761937407	-0.8108840187146023	-136.0	0.3048510219157843	42.0	-0.1979807929081507	133.0	0.3855421686746988	1234.0	9.795180722891567	2015.0	-0.1927710843373494	2063.0	0.43636363636363634	-480.0	-0.81	-891.0	-0.15714285714285717	154.0	95.25916683094849	39921.0	0.9951939272528427	0.09195030682503537	-0.004590553376466534	0.033363378928743914	1.522815953550875E12	1.52281595356E12	27.0666214667408	25965.0	1988.28125	65152.0	3862.271062271062	2636.0	0.0	0.0	
0.19918040802827758	0.9391152070436151	-0.0465970994861864	0.34042816895628203	-0.7522113170968132	-138.0	0.3305464679510482	39.0	-0.16430388949472916	131.0	0.3734939759036145	1236.0	9.771084337349398	2016.0	-0.21686746987951808	2065.0	0.43363636363636365	-477.0	-0.8172727272727273	-899.0	-0.15510204081632656	152.0	95.26512095109638	39923.0	0.9950449930633857	0.09337214886571474	-0.004632947350124903	0.033847295232215746	1.5228159535586875E12	1.522815953563E12	27.0666214667408	25965.0	1996.09375	65408.0	3852.014652014652	2629.0	0.0	0.0	
0.20218863137341683	0.9392441306044466	-0.04643228607080056	0.34009484843990057	-0.8473282442748091	-127.0	0.15744274809160305	46.0	-0.31440839694656486	141.0	0.4096385542168675	1235.0	9.783132530120483	2013.0	-0.21686746987951808	2065.0	0.43	-473.0	-0.8145454545454546	-896.0	-0.15816326530612246	155.0	95.26512095109638	39923.0	0.9948943202539077	0.09479058899382825	-0.004686048708282741	0.03432312212229469	1.5228159535665E12	1.522815953575E12	27.0666214667408	25965.0	2003.90625	128.0	3856.4102564102564	2632.0	0.0	0.0	
0.2051864572733684	0.9393900528360201	-0.04622090781578891	0.3397204090327847	-0.9411626541397533	-125.0	0.12448620082207856	53.0	-0.4317087492660012	149.0	0.39759036144578314	1236.0	9.771084337349398	2014.0	-0.10843373493975904	2056.0	0.44181818181818183	-486.0	-0.8036363636363636	-884.0	-0.15306122448979592	150.0	95.26809801234246	39924.0	0.9947419290758208	0.09620608355310867	-0.004733638072706464	0.03479190561730327	1.5228159535743125E12	1.522815953578E12	27.0666214667408	25965.0	2011.71875	384.0	3835.8974358974356	2618.0	0.0	0.0	
0.20819158499821624	0.9395390377312788	-0.04601233326317905	0.33933650226087575	-0.7894980337728428	-134.0	0.26000462641684013	44.0	-0.4557020587554938	151.0	0.42168674698795183	1237.0	9.759036144578314	2012.0	-0.060240963855421686	2052.0	0.43363636363636365	-477.0	-0.8045454545454546	-885.0	-0.15612244897959185	153.0	95.27107507436999	39925.0	0.9945869236196277	0.09762552694295965	-0.00478104485316521	0.0352597428247296	1.522815953582125E12	1.52281595359E12	27.0666214667408	25965.0	2019.53125	640.0	3862.271062271062	2636.0	0.0	0.0	
0.2111869346710821	0.9397021190400503	-0.0457538976083505	0.3389196192687657	-0.8540503588925603	-132.0	0.22558960920587898	49.0	-0.6321066423607153	163.0	0.3734939759036145	1236.0	9.771084337349398	2016.0	-0.012048192771084338	2048.0	0.43454545454545457	-478.0	-0.8154545454545454	-897.0	-0.15714285714285717	154.0	95.27107507436999	39925.0	0.9944301879890534	0.09904211237405391	-0.004822339522982464	0.03572122945905373	1.5228159535899375E12	1.522815953598E12	27.0666214667408	25965.0	2027.34375	896.0	3844.688644688644	2624.0	0.0	0.0	
0.21417921571577178	0.9398630442885811	-0.045277500703070815	0.33853715587908556	-0.887292321508756	-160.0	0.6497530309833858	52.0	-0.5312079030085315	157.0	0.3132530120481928	1235.0	9.783132530120483	2021.0	0.0	2047.0	0.4390909090909091	-483.0	-0.8127272727272727	-894.0	-0.15612244897959185	153.0	95.26809801234246	39924.0	0.9942713858186251	0.10045729717741814	-0.0048394873819323815	0.036184556761124274	1.52281595359775E12	1.522815953609E12	27.0666214667408	25965.0	2035.15625	1152.0	3846.1538461538457	2625.0	0.0	0.0	
0.2171826574109707	0.9400335094363989	-0.044929544839119276	0.3381099482967607	-0.6912269056311539	-129.0	0.16705387764133206	40.0	-0.584577940037615	161.0	0.28915662650602414	1234.0	9.795180722891567	2023.0	0.024096385542168676	2045.0	0.4309090909090909	-474.0	-0.8063636363636364	-887.0	-0.15510204081632656	152.0	95.26809801234246	39924.0	0.994109753266081	0.10187898454693034	-0.0048693757811991535	0.036643691795988774	1.5228159536055625E12	1.522815953611E12	27.0666214667408	25965.0	2042.96875	1408.0	3852.014652014652	2629.0	0.0	0.0	
0.22019740177164793	0.9402180228111854	-0.04460521770266822	0.33763951802877423	-0.4828789531079609	-129.0	0.16466739367502736	27.0	-0.6067611777535442	163.0	0.3132530120481928	1236.0	9.771084337349398	2021.0	-0.024096385542168676	2049.0	0.43636363636363634	-480.0	-0.8072727272727273	-888.0	-0.15714285714285717	154.0	95.26809801234246	39924.0	0.9939452578996846	0.10330777593327807	-0.00490106094978327	0.037098616308636076	1.522815953613375E12	1.522815953629E12	27.0666214667408	25965.0	2050.78125	1664.0	3825.6410256410254	2611.0	0.0	0.0	
0.22321146224038002	0.9404081293616676	-0.0442770149546924	0.3371529269889205	-0.4608106655198364	-128.0	0.1470809590366627	26.0	-0.6287495968175463	165.0	0.30120481927710846	1234.0	9.795180722891567	2022.0	-0.10843373493975904	2056.0	0.43727272727272726	-481.0	-0.8118181818181818	-893.0	-0.15918367346938778	156.0	95.26512095109638	39923.0	0.9937785422042466	0.10473718884832582	-0.004931316448846081	0.03755013241832973	1.5228159536211875E12	1.52281595363E12	27.0666214667408	25965.0	2058.59375	1920.0	3844.688644688644	2624.0	0.0	0.0	
0.22621180065565877	0.9406063194361514	-0.0438787420722737	0.336651760475067	-0.576547921967769	-134.0	0.23664122137404578	34.0	-0.8184902459711623	178.0	0.26506024096385544	1235.0	9.783132530120483	2025.0	-0.13253012048192772	2058.0	0.43454545454545457	-478.0	-0.8163636363636364	-898.0	-0.15612244897959185	153.0	95.26809801234246	39924.0	0.993610343891358	0.10616143343256179	-0.004952369614529721	0.037996165580784794	1.522815953629E12	1.522815953631E12	27.0666214667408	25965.0	2066.40625	2176.0	3846.1538461538457	2625.0	0.0	0.0	
0.22918994165290626	0.9408019749541957	-0.043523654331367574	0.3361507629560568	-0.8739935166788664	-125.0	0.09599498065460617	54.0	-0.8988811042559869	184.0	0.26506024096385544	1234.0	9.795180722891567	2025.0	-0.10843373493975904	2056.0	0.43272727272727274	-476.0	-0.8063636363636364	-887.0	-0.15408163265306124	151.0	95.26809801234246	39924.0	0.9934411785867862	0.10757536690160473	-0.004976682881457002	0.03843693213017834	1.5228159536368125E12	1.522815953643E12	27.0666214667408	25965.0	2074.21875	2432.0	3856.4102564102564	2632.0	0.0	0.0	
0.23218093561328332	0.9409747092440021	-0.04309667266905294	0.3357220179970601	-0.7553125644728697	-134.0	0.23210233133897265	47.0	-0.5661233752836804	163.0	0.22891566265060243	1235.0	9.783132530120483	2028.0	-0.0963855421686747	2055.0	0.43636363636363634	-480.0	-0.81	-891.0	-0.15612244897959185	153.0	95.26214389063172	39922.0	0.9932690661366395	0.10899299234719124	-0.004991882638568837	0.03888664273212549	1.522815953644625E12	1.522815953653E12	27.0666214667408	25965.0	2082.03125	2688.0	3827.106227106227	2612.0	0.0	0.0	
0.23515849003208905	0.9411824114848983	-0.0425364848222096	0.3352108527038503	-0.8063104325699746	-157.0	0.5801526717557252	51.0	-0.8791857506361319	184.0	0.20481927710843376	1234.0	9.795180722891567	2030.0	-0.10843373493975904	2056.0	0.44	-484.0	-0.8081818181818182	-889.0	-0.15816326530612246	155.0	95.25916683094849	39921.0	0.9930955205382346	0.11040870860996829	-0.004989891758196157	0.03932308647872799	1.5228159536524375E12	1.522815953668E12	27.0666214667408	25965.0	2089.84375	2944.0	3846.1538461538457	2625.0	0.0	0.0	
0.23813871251552599	0.941366652109885	-0.04201484998262836	0.33475898595310893	-0.8262354359180395	-134.0	0.2213740458015267	53.0	-0.6538770590598636	170.0	0.13253012048192772	1235.0	9.783132530120483	2036.0	-0.04819277108433735	2051.0	0.43727272727272726	-481.0	-0.8109090909090909	-892.0	-0.15714285714285717	154.0	95.25916683094849	39921.0	0.992919615319723	0.1118232543208721	-0.004990868589120489	0.03976541886047407	1.52281595366025E12	1.52281595367E12	27.0666214667408	25965.0	2097.65625	3200.0	3849.0842490842488	2627.0	0.0	0.0	
0.2411260927429179	0.9415338535854735	-0.04148206238603843	0.33435496265598696	-0.7391692277188463	-130.0	0.15743035590363816	48.0	-0.5079805690492715	161.0	0.0963855421686747	1235.0	9.783132530120483	2039.0	0.012048192771084338	2046.0	0.4309090909090909	-474.0	-0.8090909090909091	-890.0	-0.15408163265306124	151.0	95.26214389063172	39922.0	0.9927410749627977	0.11323939283791473	-0.004989096823625851	0.0402132677644293	1.5228159536680625E12	1.522815953705E12	27.0666214667408	25965.0	2105.46875	3456.0	3831.501831501831	2615.0	0.0	0.0	
0.2441170732823202	0.9417245987265203	-0.04094947524322233	0.33388309425710205	-0.6228224701507142	-120.0	0.0027402622822470593	41.0	-0.5930710510863185	167.0	0.060240963855421686	1234.0	9.795180722891567	2042.0	-0.012048192771084338	2048.0	0.43454545454545457	-478.0	-0.8009090909090909	-881.0	-0.15612244897959185	153.0	95.27107507436999	39925.0	0.9925601005139704	0.1146603237457814	-0.004985831414998704	0.04065216490312803	1.522815953675875E12	1.522815953707E12	27.0666214667408	25965.0	2113.28125	3712.0	3862.271062271062	2636.0	0.0	0.0	
0.24711179785501972	0.9418974663513755	-0.04036381050445	0.33346652857885845	-0.6302058169871487	-122.0	0.03323992656295279	42.0	-0.29548748671369185	148.0	0.012048192771084338	1234.0	9.795180722891567	2046.0	-0.07228915662650603	2053.0	0.44181818181818183	-486.0	-0.8027272727272727	-883.0	-0.15714285714285717	154.0	95.27107507436999	39925.0	0.9923766755047726	0.11608111106971865	-0.0049745074572864565	0.04109700527377307	1.5228159536836875E12	1.522815953709E12	27.0666214667408	25965.0	2121.09375	3968.0	3846.1538461538457	2625.0	0.0	0.0	
0.25008431275269766	0.9420541047346608	-0.03979543879274335	0.33309215962531974	-0.9429389312977097	-124.0	0.06335877862595428	63.0	-0.32232824427480933	150.0	0.012048192771084338	1234.0	9.795180722891567	2046.0	-0.07228915662650603	2053.0	0.44	-484.0	-0.8172727272727273	-899.0	-0.15816326530612246	155.0	95.26214389063172	39922.0	0.9921924105127018	0.11748974796663339	-0.00496315025907978	0.04154210855549872	1.5228159536915E12	1.52281595371E12	27.0666214667408	25965.0	2128.90625	4224.0	3854.945054945055	2631.0	0.0	0.0	
0.2530782763283536	0.9421973764490331	-0.03934911133840464	0.3327397650558779	-0.6564885496183206	-121.0	0.016775044764866763	45.0	-0.1656771275091885	140.0	0.10843373493975904	1233.0	9.807228915662652	2038.0	-0.04819277108433735	2051.0	0.43454545454545457	-478.0	-0.81	-891.0	-0.15714285714285717	154.0	95.26512095109638	39923.0	0.9920046004335722	0.11890692421526691	-0.004965925311199248	0.041992328800594156	1.5228159536993125E12	1.522815953711E12	27.0666214667408	25965.0	2136.71875	4480.0	3853.4798534798533	2630.0	0.0	0.0	
0.25606524360697863	0.9423279542287067	-0.03894820288879774	0.3324170034322738	-0.7706199962762984	-121.0	0.016570471048222048	53.0	-0.0873207968720904	135.0	0.14457831325301207	1233.0	9.807228915662652	2035.0	-0.04819277108433735	2051.0	0.4354545454545454	-479.0	-0.8109090909090909	-892.0	-0.15714285714285717	154.0	95.26512095109638	39923.0	0.9918150139782813	0.12031936925289316	-0.004973027897648985	0.0424440387260344	1.522815953707125E12	1.522815953717E12	27.0666214667408	25965.0	2144.53125	4736.0	3860.8058608058604	2635.0	0.0	0.0	
0.2590542354376005	0.9424660067265916	-0.0385582674937803	0.3320709053390737	-0.7002667157178333	-122.0	0.031638002391244216	49.0	-0.11680309022348911	137.0	0.16867469879518074	1234.0	9.795180722891567	2033.0	-0.03614457831325302	2050.0	0.4390909090909091	-483.0	-0.8036363636363636	-884.0	-0.15612244897959185	153.0	95.26214389063172	39922.0	0.9916230845362176	0.12173384426816428	-0.0049803877241587895	0.042892016887631	1.5228159537149375E12	1.522815953728E12	27.0666214667408	25965.0	2152.34375	4992.0	3846.1538461538457	2625.0	0.0	0.0	
0.262032342594561	0.9426168787638517	-0.038042522010130655	0.3317019541525307	-0.7682660850599782	-128.0	0.12286441294074886	54.0	-0.2680843329698289	147.0	0.07228915662650603	1234.0	9.795180722891567	2041.0	0.012048192771084338	2046.0	0.44	-484.0	-0.8063636363636364	-887.0	-0.15408163265306124	151.0	95.27107507436999	39925.0	0.9914296512971842	0.12314504533447111	-0.0049699386920789455	0.04333409797967274	1.52281595372275E12	1.522815953741E12	27.0666214667408	25965.0	2160.15625	5248.0	3843.223443223443	2623.0	0.0	0.0	
0.2650191942202486	0.9427455691141532	-0.03751803353049537	0.3313958193393904	-0.6981589582397842	-128.0	0.12141894925909295	50.0	0.0098787606645713	129.0	0.03614457831325302	1234.0	9.795180722891567	2044.0	0.012048192771084338	2046.0	0.4318181818181818	-475.0	-0.8072727272727273	-888.0	-0.15510204081632656	152.0	95.27107507436999	39925.0	0.9912334421213234	0.12455757399062474	-0.00495696335316487	0.043784729029632444	1.5228159537305625E12	1.522815953743E12	27.0666214667408	25965.0	2167.96875	5504.0	3846.1538461538457	2625.0	0.0	0.0	
0.26801327203346303	0.9428713217381935	-0.03703497533903327	0.33109225488572636	-0.6289721285283152	-119.0	-0.017397479140777727	46.0	0.20823717379726647	116.0	0.03614457831325302	1234.0	9.795180722891567	2044.0	-0.08433734939759037	2054.0	0.4354545454545454	-479.0	-0.8	-880.0	-0.15714285714285717	154.0	95.26809801234246	39924.0	0.9910345394532059	0.12597318950639838	-0.004948091917938587	0.04423588501125459	1.522815953738375E12	1.522815953762E12	27.0666214667408	25965.0	2175.78125	5760.0	3857.8754578754574	2633.0	0.0	0.0	
0.2709932505874082	0.9430162923200236	-0.03646894706518037	0.33074202684106435	-0.7438799684127403	-128.0	0.12020707203650075	54.0	0.037904711766254214	127.0	-0.012048192771084338	1234.0	9.795180722891567	2048.0	-0.20481927710843376	2064.0	0.4381818181818182	-482.0	-0.7972727272727272	-877.0	-0.15714285714285717	154.0	95.26809801234246	39924.0	0.9908343680582559	0.12738490499991942	-0.004926312933487002	0.04467742711525916	1.5228159537461875E12	1.522815953763E12	27.0666214667408	25965.0	2183.59375	6016.0	3847.6190476190473	2626.0	0.0	0.0	
0.2739840123474744	0.94314868592934	-0.03587560719822483	0.3304292617761372	-0.6132893823733521	-125.0	0.07303955586398352	46.0	0.23594725884802195	114.0	-0.060240963855421686	1234.0	9.795180722891567	2052.0	-0.3493975903614458	2076.0	0.44	-484.0	-0.8054545454545454	-886.0	-0.15408163265306124	151.0	95.26809801234246	39924.0	0.9906312606599206	0.1288000856906111	-0.004899313703417754	0.045124716671280346	1.522815953754E12	1.52281595377E12	27.0666214667408	25965.0	2191.40625	6272.0	3837.362637362637	2619.0	0.0	0.0	
0.2769545590575744	0.9432773618055507	-0.03524805719870806	0.3301293582353645	-0.9117420018869545	-124.0	0.05695171112445323	66.0	0.30963204391457216	109.0	-0.10843373493975904	1232.0	9.819277108433736	2056.0	-0.46987951807228917	2086.0	0.44272727272727275	-487.0	-0.7972727272727272	-877.0	-0.15306122448979592	150.0	95.27107507436999	39925.0	0.9904273332921891	0.13020541447108788	-0.0048654702028187585	0.045569449303683	1.5228159537618125E12	1.522815953776E12	27.0666214667408	25965.0	2199.21875	6528.0	3843.223443223443	2623.0	0.0	0.0	
0.279897583553749	0.9433939712169762	-0.03459473827294029	0.32986515298721336	-1.2985581000848174	-120.0	-0.0047497879558947	92.0	0.306191687871077	109.0	-0.18072289156626506	1233.0	9.807228915662652	2062.0	-0.44578313253012053	2084.0	0.43636363636363634	-480.0	-0.8036363636363636	-884.0	-0.15306122448979592	150.0	95.26809801234246	39924.0	0.9902231406692715	0.13159629603927003	-0.004825703320209	0.0460136842612497	1.522815953769625E12	1.522815953782E12	27.0666214667408	25965.0	2207.03125	6784.0	3857.8754578754574	2633.0	0.0	0.0	
0.28283785859206545	0.9434972045193936	-0.03393437873963952	0.32963841251231846	-1.3758912842882305	-126.0	0.08690546095126249	98.0	0.5165674020635854	95.0	-0.18072289156626506	1233.0	9.807228915662652	2062.0	-0.3373493975903615	2075.0	0.4381818181818182	-482.0	-0.7990909090909091	-879.0	-0.15612244897959185	153.0	95.26809801234246	39924.0	0.9900169976350066	0.13298406302607355	-0.004782983499523567	0.04646188162018229	1.5228159537774375E12	1.522815953795E12	27.0666214667408	25965.0	2214.84375	7040.0	3843.223443223443	2623.0	0.0	0.0	
0.2857663633248783	0.9435800456032248	-0.03335172025816345	0.32946071130749943	-1.559409226684368	-127.0	0.10122801194822446	111.0	0.5414868901427151	93.0	-0.10843373493975904	1232.0	9.819277108433736	2056.0	-0.2530120481927711	2068.0	0.43727272727272726	-481.0	-0.81	-891.0	-0.15408163265306124	151.0	95.27107507436999	39925.0	0.9898095529213075	0.13436344265643294	-0.004749201695481278	0.04691438272522273	1.52281595378525E12	1.522815953799E12	27.0666214667408	25965.0	2222.65625	7296.0	3849.0842490842488	2627.0	0.0	0.0	
0.28869678410747385	0.9436256574279916	-0.03288360939496783	0.3293771195404054	-1.6342444389723387	-138.0	0.2680784699991792	117.0	0.8562751374866614	72.0	0.03614457831325302	1233.0	9.807228915662652	2044.0	-0.14457831325301207	2059.0	0.4354545454545454	-479.0	-0.8127272727272727	-894.0	-0.15510204081632656	152.0	95.26512095109638	39923.0	0.9895998482125149	0.13573831364479466	-0.004730229250011333	0.0473801177486596	1.5228159537930625E12	1.522815953814E12	27.0666214667408	25965.0	2230.46875	7552.0	3837.362637362637	2619.0	0.0	0.0	
0.2916168897550698	0.9436687490906607	-0.03240752032452623	0.3293008421126162	-1.754263439987007	-154.0	0.509501380542472	126.0	0.8471658275133992	72.0	0.08433734939759037	1235.0	9.783132530120483	2040.0	0.03614457831325302	2044.0	0.4354545454545454	-479.0	-0.8045454545454546	-885.0	-0.15714285714285717	154.0	95.26512095109638	39923.0	0.9893887683583164	0.1371078439349279	-0.004708564571259596	0.047844891029319506	1.522815953800875E12	1.522815953815E12	27.0666214667408	25965.0	2238.28125	7808.0	3860.8058608058604	2635.0	0.0	0.0	
0.29454835862343826	0.9436986815933414	-0.03201911120563235	0.32925305598674304	-1.628927280032142	-143.0	0.33619927681799905	119.0	1.0519887505022094	58.0	0.14457831325301207	1235.0	9.783132530120483	2035.0	0.16867469879518074	2033.0	0.4409090909090909	-485.0	-0.7990909090909091	-879.0	-0.15510204081632656	152.0	95.27107507436999	39925.0	0.9891747456537859	0.13848057919786555	-0.004698560198972011	0.04831537310058391	1.5228159538086875E12	1.522815953817E12	27.0666214667408	25965.0	2246.09375	8064.0	3841.7582417582416	2622.0	0.0	0.0	
0.2974795740223156	0.9437505121530442	-0.031574945799102194	0.3291473736924624	-1.4898218829516543	-147.0	0.39376590330788785	111.0	0.7509541984732824	77.0	0.0963855421686747	1235.0	9.783132530120483	2039.0	0.22891566265060243	2028.0	0.44	-484.0	-0.8145454545454546	-896.0	-0.15612244897959185	153.0	95.27107507436999	39925.0	0.9889586166100138	0.13985623058179408	-0.004679152851755772	0.04877699179787034	1.5228159538165E12	1.522815953822E12	27.0666214667408	25965.0	2253.90625	8320.0	3846.1538461538457	2625.0	0.0	0.0	
0.3004218292916748	0.9438036590771152	-0.031099510931603642	0.3290402308722472	-1.3217911387424257	-139.0	0.2675690564255921	101.0	0.8806169827654049	68.0	0.012048192771084338	1235.0	9.783132530120483	2046.0	0.22891566265060243	2028.0	0.43272727272727274	-476.0	-0.8118181818181818	-893.0	-0.15714285714285717	154.0	95.27107507436999	39925.0	0.9887395372527561	0.14123707985833492	-0.004653938419032103	0.049239776639297184	1.5228159538243125E12	1.522815953857E12	27.0666214667408	25965.0	2261.71875	8576.0	3860.8058608058604	2635.0	0.0	0.0	
0.30334808167205374	0.9438621244806622	-0.030552276302501465	0.3289237729073214	-1.4915095809316088	-148.0	0.4022433400841251	113.0	0.7952952173235708	73.0	-0.024096385542168676	1234.0	9.795180722891567	2049.0	0.3132530120481928	2021.0	0.4390909090909091	-483.0	-0.8081818181818182	-889.0	-0.15510204081632656	152.0	95.26809801234246	39924.0	0.9885195270446666	0.14261111615390995	-0.004616240138823003	0.04969813404651493	1.522815953832125E12	1.522815953859E12	27.0666214667408	25965.0	2269.53125	8832.0	3859.340659340659	2634.0	0.0	0.0	
0.30630381258078576	0.9439273310938351	-0.02998613773252095	0.3287887241952526	-1.0336957359858125	-149.0	0.4134474516153906	84.0	0.9093993368802527	65.0	-0.04819277108433735	1234.0	9.795180722891567	2051.0	0.3614457831325301	2017.0	0.4381818181818182	-482.0	-0.8072727272727273	-888.0	-0.15714285714285717	154.0	95.26512095109638	39923.0	0.9882951522505299	0.14399979453921521	-0.0045745022209536775	0.05015800175640904	1.5228159538399375E12	1.522815953861E12	27.0666214667408	25965.0	2277.34375	9088.0	3846.1538461538457	2625.0	0.0	0.0	
0.3092895842403557	0.9439688511376249	-0.029561125978712206	0.32870799794466377	-0.7332824427480918	-130.0	0.11923664122137408	65.0	1.4041221374045798	32.0	0.024096385542168676	1234.0	9.795180722891567	2045.0	0.24096385542168675	2027.0	0.4390909090909091	-483.0	-0.8045454545454546	-885.0	-0.15714285714285717	154.0	95.26512095109638	39923.0	0.9880663054708327	0.1453987104013019	-0.004553274814243351	0.050630610260231856	1.52281595384775E12	1.522815953862E12	27.0666214667408	25965.0	2285.15625	9344.0	3835.8974358974356	2618.0	0.0	0.0	
0.31227385965556775	0.9440183838418486	-0.029093071509458182	0.3286074925481485	-0.6802206938251073	-137.0	0.22492630942483557	62.0	1.2833497090167034	39.0	-0.012048192771084338	1233.0	9.807228915662652	2048.0	0.12048192771084337	2037.0	0.43363636363636365	-477.0	-0.8145454545454546	-896.0	-0.15612244897959185	153.0	95.26809801234246	39924.0	0.9878353729159088	0.14679797305324052	-0.00452406859927945	0.051099549184475956	1.5228159538555625E12	1.522815953868E12	27.0666214667408	25965.0	2292.96875	9600.0	3853.4798534798533	2630.0	0.0	0.0	
0.31525587113812903	0.9440686166679167	-0.028625223587257786	0.32850425202316547	-0.7193533902110469	-137.0	0.22272114952851355	65.0	1.408172429277054	30.0	-0.024096385542168676	1233.0	9.807228915662652	2049.0	0.08433734939759037	2040.0	0.43363636363636365	-477.0	-0.8063636363636364	-887.0	-0.15918367346938778	156.0	95.27107507436999	39925.0	0.9876024186628636	0.14819610938228372	-0.004493472922341396	0.051567281451635166	1.522815953863375E12	1.522815953876E12	27.0666214667408	25965.0	2300.78125	9856.0	3860.8058608058604	2635.0	0.0	0.0	
0.3182400785682226	0.9441288640091936	-0.028166194704492754	0.32837075634193924	-0.6513006744237761	-127.0	0.06788705254576448	61.0	1.42503520343882	28.0	-0.04819277108433735	1233.0	9.807228915662652	2051.0	0.08433734939759037	2040.0	0.4409090909090909	-485.0	-0.8054545454545454	-886.0	-0.16122448979591839	158.0	95.27107507436999	39925.0	0.9873670949004288	0.1495966745111013	-0.004462917322039715	0.052030157140679156	1.5228159538711875E12	1.522815953878E12	27.0666214667408	25965.0	2308.59375	10112.0	3843.223443223443	2623.0	0.0	0.0	
0.3212281772766919	0.9441629203980032	-0.02771080940203221	0.3283115757748925	-0.6755725190839694	-137.0	0.21990604815032283	63.0	1.7472108044627128	6.0	-0.012048192771084338	1233.0	9.807228915662652	2048.0	0.04819277108433735	2043.0	0.44363636363636366	-488.0	-0.8072727272727273	-888.0	-0.15714285714285717	154.0	95.26512095109638	39923.0	0.9871292617371172	0.15099470893562023	-0.004431635165535305	0.05250503885857702	1.522815953879E12	1.522815953885E12	27.0666214667408	25965.0	2316.40625	10368.0	3846.1538461538457	2625.0	0.0	0.0	
0.3241994592316609	0.9442038787219266	-0.027277677469284178	0.32823004694627095	-0.8523446019629226	-141.0	0.27888040712468215	75.0	1.5778989458378772	16.0	0.024096385542168676	1233.0	9.807228915662652	2045.0	0.012048192771084338	2046.0	0.4381818181818182	-482.0	-0.8009090909090909	-881.0	-0.15612244897959185	153.0	95.27107507436999	39925.0	0.9868905821898286	0.1523857855942255	-0.0044023652137177415	0.05297329812629109	1.5228159538868125E12	1.522815953896E12	27.0666214667408	25965.0	2324.21875	10624.0	3841.7582417582416	2622.0	0.0	0.0	
0.3271657250661284	0.9442208549540657	-0.026853781375337837	0.32821616580488616	-0.9969753708771416	-152.0	0.4441883911853664	85.0	1.8683566181765805	-4.0	0.060240963855421686	1234.0	9.795180722891567	2042.0	0.0963855421686747	2039.0	0.44181818181818183	-486.0	-0.8063636363636364	-887.0	-0.15816326530612246	155.0	95.27107507436999	39925.0	0.9866501328994441	0.153770403827879	-0.004373253126877988	0.05345140609196848	1.522815953894625E12	1.522815953903E12	27.0666214667408	25965.0	2332.03125	10880.0	3863.7362637362635	2637.0	0.0	0.0	
0.33012815016932545	0.9442440072274363	-0.02636484317815833	0.3281891982671881	-0.9571234929014775	-172.0	0.7453806092601838	83.0	1.7134907612185202	5.0	0.060240963855421686	1235.0	9.783132530120483	2042.0	0.2530120481927711	2026.0	0.43727272727272726	-481.0	-0.8	-880.0	-0.15612244897959185	153.0	95.27405213717894	39926.0	0.9864078288394129	0.1551539596835293	-0.0043321533250051765	0.05392658385625554	1.5228159539024375E12	1.522815953917E12	27.0666214667408	25965.0	2339.84375	11136.0	3844.688644688644	2624.0	0.0	0.0	
0.33310475636171966	0.9442536132879298	-0.025795977056136885	0.32820676617097194	-0.7803223070398645	-185.0	0.9369522193949674	72.0	2.0029686174724346	-15.0	0.0	1234.0	9.795180722891567	2047.0	0.39759036144578314	2014.0	0.4409090909090909	-485.0	-0.8045454545454546	-885.0	-0.15714285714285717	154.0	95.27107507436999	39925.0	0.9861621851402591	0.156541599772999	-0.004276545473852373	0.054411242392630316	1.52281595391025E12	1.522815953919E12	27.0666214667408	25965.0	2347.65625	11392.0	3853.4798534798533	2630.0	0.0	0.0	
0.3360994560549893	0.9442873348260584	-0.025173437294058448	0.3281580828532243	-0.3609496463337771	-181.0	0.8672876251838364	45.0	1.740317949436235	1.0	-0.08433734939759037	1234.0	9.795180722891567	2054.0	0.45783132530120485	2009.0	0.43636363636363634	-480.0	-0.8145454545454546	-896.0	-0.15612244897959185	153.0	95.27107507436999	39925.0	0.9859128439288418	0.15794137704554054	-0.004210505854052929	0.05488767833999391	1.5228159539180625E12	1.52281595393E12	27.0666214667408	25965.0	2355.46875	11648.0	3835.8974358974356	2618.0	0.0	0.0	
0.3391125851601339	0.9442961151826015	-0.024652435034974763	0.32817236979657705	-0.22026370575988846	-163.0	0.5845940319222762	36.0	2.228313671061762	-32.0	-0.060240963855421686	1236.0	9.771084337349398	2052.0	0.5301204819277109	2003.0	0.43	-473.0	-0.8072727272727273	-888.0	-0.15816326530612246	155.0	95.26512095109638	39923.0	0.9856597373515733	0.15934526793146672	-0.0041599756714571605	0.05537745348325185	1.522815953925875E12	1.522815953931E12	27.0666214667408	25965.0	2363.28125	11904.0	3859.340659340659	2634.0	0.0	0.0	
0.34212324521878923	0.9443104079472714	-0.024278929361566223	0.3281590879916487	-0.24881369919537866	-142.0	0.25871673199917483	38.0	2.223505948696788	-33.0	0.07228915662650603	1235.0	9.783132530120483	2041.0	0.5301204819277109	2003.0	0.44636363636363635	-491.0	-0.8	-880.0	-0.15714285714285717	154.0	95.26512095109638	39923.0	0.9854046037384787	0.1607486128405653	-0.0041329674895881985	0.05586205313605743	1.5228159539336875E12	1.522815953935E12	27.0666214667408	25965.0	2371.09375	12160.0	3844.688644688644	2624.0	0.0	0.0	
0.34516146258878755	0.9443301601656563	-0.023991454145723873	0.32812338948859476	0.19615594329334846	-141.0	0.24113958560523407	9.0	2.203653217011995	-33.0	0.16867469879518074	1236.0	9.771084337349398	2033.0	0.45783132530120485	2009.0	0.44	-484.0	-0.8063636363636364	-887.0	-0.15816326530612246	155.0	95.26512095109638	39923.0	0.9851448711303138	0.1621653916717943	-0.004119939955782743	0.056347091533919064	1.5228159539415E12	1.522815953949E12	27.0666214667408	25965.0	2378.90625	12416.0	3849.0842490842488	2627.0	0.0	0.0	
0.3482039501215271	0.9443527084269832	-0.02361677235456589	0.32808567501519076	0.2707559278524629	-163.0	0.5748834695669793	4.0	2.321556441261906	-42.0	0.13253012048192772	1235.0	9.783132530120483	2036.0	0.30120481927710846	2022.0	0.4381818181818182	-482.0	-0.8009090909090909	-881.0	-0.15918367346938778	156.0	95.26214389063172	39922.0	0.9848824952678644	0.16358432551994606	-0.0040909860713111736	0.056832233741897414	1.5228159539493125E12	1.522815953952E12	27.0666214667408	25965.0	2386.71875	12672.0	3832.9670329670325	2616.0	0.0	0.0	
0.35123584718864825	0.9443766660895871	-0.023235880452629764	0.3280439092638535	0.161510646846123	-158.0	0.493504754252042	11.0	2.27065755993036	-40.0	0.0963855421686747	1235.0	9.783132530120483	2039.0	0.30120481927710846	2022.0	0.43636363636363634	-480.0	-0.8063636363636364	-887.0	-0.15816326530612246	155.0	95.25916683094849	39921.0	0.9846187653867484	0.16499827084783888	-0.004059693800129656	0.057314713222241485	1.522815953957125E12	1.522815953967E12	27.0666214667408	25965.0	2394.53125	12928.0	3860.8058608058604	2635.0	0.0	0.0	
0.3542726653688528	0.9444034374391627	-0.022880050512195823	0.32799184538896403	0.25170925987388015	-145.0	0.2907401261201462	5.0	2.3425157650182538	-46.0	0.0963855421686747	1234.0	9.795180722891567	2039.0	0.3614457831325301	2017.0	0.44545454545454544	-490.0	-0.8018181818181818	-882.0	-0.15612244897959185	153.0	95.25916683094849	39921.0	0.984352339178487	0.16641469170738166	-0.004031726697819931	0.05779591609804553	1.5228159539649375E12	1.522815953973E12	27.0666214667408	25965.0	2402.34375	13184.0	3844.688644688644	2624.0	0.0	0.0	
0.3573458929239129	0.944411759213016	-0.022665243653978966	0.3279827980097271	0.7075546196367459	-132.0	0.0897604632798107	-25.0	2.673466701763622	-69.0	0.21686746987951808	1236.0	9.771084337349398	2029.0	0.3855421686746988	2015.0	0.4390909090909091	-483.0	-0.8045454545454546	-885.0	-0.15510204081632656	152.0	95.26512095109638	39923.0	0.984080408238001	0.16784444936381204	-0.004028153296152122	0.058290350152584505	1.52281595397275E12	1.522815954001E12	27.0666214667408	25965.0	2410.15625	13440.0	3852.014652014652	2629.0	0.0	0.0	
0.3604135981509513	0.9444447910966207	-0.02251818076335337	0.32789780131249013	0.823644548835388	-132.0	0.08899327983297471	-33.0	2.1315325895478567	-35.0	0.3132530120481928	1237.0	9.759036144578314	2021.0	0.3373493975903615	2019.0	0.4318181818181818	-475.0	-0.8181818181818182	-900.0	-0.15510204081632656	152.0	95.26214389063172	39922.0	0.9838066486006585	0.169275699273671	-0.004036001713410484	0.05877011566025207	1.5228159539805625E12	1.522815954002E12	27.0666214667408	25965.0	2417.96875	13696.0	3837.362637362637	2619.0	0.0	0.0	
0.3634785651425448	0.9444733346116805	-0.02239124060448595	0.32782427083985777	0.7708629835683795	-137.0	0.16457497735800225	-30.0	2.266140509768404	-45.0	0.3614457831325301	1237.0	9.759036144578314	2017.0	0.30120481927710846	2022.0	0.43363636363636365	-477.0	-0.81	-891.0	-0.15612244897959185	153.0	95.26214389063172	39922.0	0.9835308218140113	0.17070456758440447	-0.0040470036633047605	0.05925111736521284	1.522815953988375E12	1.522815954003E12	27.0666214667408	25965.0	2425.78125	13952.0	3832.9670329670325	2616.0	0.0	0.0	
0.3665445850870511	0.9445318167125357	-0.022220550859599748	0.32766735317576234	0.9628584258130735	-128.0	0.02578741420232222	-43.0	1.880685098466867	-21.0	0.30120481927710846	1235.0	9.783132530120483	2022.0	0.3253012048192771	2020.0	0.43454545454545457	-478.0	-0.8054545454545454	-886.0	-0.15204081632653063	149.0	95.26512095109638	39923.0	0.9832525892509469	0.17213906621729536	-0.0040496516984663425	0.05971673077343766	1.5228159539961875E12	1.522815954005E12	27.0666214667408	25965.0	2433.59375	14208.0	3849.0842490842488	2627.0	0.0	0.0	
0.3696296754091202	0.9445980903083782	-0.022107986563442712	0.3274838693979891	1.2601781170483455	-110.0	-0.24923664122137387	-63.0	1.9718829516539444	-28.0	0.3132530120481928	1234.0	9.795180722891567	2021.0	0.30120481927710846	2022.0	0.43727272727272726	-481.0	-0.8081818181818182	-889.0	-0.15612244897959185	153.0	95.27107507436999	39925.0	0.9829702937424013	0.17358362187831353	-0.004062663707976203	0.06017991857073243	1.522815954004E12	1.522815954006E12	27.0666214667408	25965.0	2441.40625	14464.0	3859.340659340659	2634.0	0.0	0.0	
0.3727222707825671	0.944652733702295	-0.02207233245474044	0.32732861904941185	1.3413664753012424	-106.0	-0.3082455365592077	-69.0	2.1235253296322	-39.0	0.39759036144578314	1235.0	9.783132530120483	2014.0	0.1927710843373494	2031.0	0.4354545454545454	-479.0	-0.8163636363636364	-898.0	-0.15510204081632656	152.0	95.27107507436999	39925.0	0.982684964032933	0.1750292940900381	-0.004089656050994257	0.06064884489683912	1.5228159540118125E12	1.522815954021E12	27.0666214667408	25965.0	2449.21875	14720.0	3856.4102564102564	2632.0	0.0	0.0	
0.3758097051662278	0.9447268448044969	-0.02202983777500131	0.3271175246808723	1.345638843699162	-120.0	-0.09197847578525875	-70.0	2.014516330872231	-33.0	0.4819277108433735	1236.0	9.771084337349398	2007.0	0.10843373493975904	2038.0	0.45181818181818184	-497.0	-0.7990909090909091	-879.0	-0.15918367346938778	156.0	95.26809801234246	39924.0	0.9823977667306769	0.17647595555127626	-0.004115196570694984	0.061105893267563	1.522815954019625E12	1.522815954022E12	27.0666214667408	25965.0	2457.03125	14976.0	3850.5494505494503	2628.0	0.0	0.0	
0.37889973764947643	0.944796223391993	-0.02200344859167276	0.3269188653386436	1.4263017439334693	-114.0	-0.18283373673431358	-76.0	1.9523366226028662	-30.0	0.46987951807228917	1235.0	9.783132530120483	2008.0	0.012048192771084338	2046.0	0.43272727272727274	-476.0	-0.8027272727272727	-883.0	-0.15204081632653063	149.0	95.26809801234246	39924.0	0.9821079836788884	0.1779227354080486	-0.004143659410264711	0.06156491456826446	1.5228159540274375E12	1.522815954035E12	27.0666214667408	25965.0	2464.84375	15232.0	3844.688644688644	2624.0	0.0	0.0	
0.3819905851487008	0.9448715032356162	-0.021980139957798656	0.326702794326444	1.4911351883772466	-122.0	-0.059221866535336065	-81.0	1.9060576212755485	-28.0	0.5180722891566265	1236.0	9.771084337349398	2004.0	-0.060240963855421686	2052.0	0.4381818181818182	-482.0	-0.8054545454545454	-886.0	-0.15408163265306124	151.0	95.26809801234246	39924.0	0.9818157789022882	0.1793707994068104	-0.004172625866906669	0.062020011383664406	1.52281595403525E12	1.522815954042E12	27.0666214667408	25965.0	2472.65625	15488.0	3856.4102564102564	2632.0	0.0	0.0	
0.3850656093104052	0.944957323745491	-0.021907720958483205	0.3264593513167811	1.3723358778625956	-127.0	0.01758778625954178	-74.0	1.6465343511450385	-12.0	0.46987951807228917	1235.0	9.783132530120483	2008.0	-0.10843373493975904	2056.0	0.43363636363636365	-477.0	-0.8145454545454546	-896.0	-0.15306122448979592	150.0	95.26809801234246	39924.0	0.9815227431146168	0.18081334240234528	-0.004191944071315698	0.06246653154252601	1.5228159540430625E12	1.522815954058E12	27.0666214667408	25965.0	2480.46875	15744.0	3847.6190476190473	2626.0	0.0	0.0	
0.3881002077363994	0.9450469594459702	-0.021819972801041237	0.32620566093936215	0.8270931782382166	-124.0	-0.02835332606324957	-39.0	1.541863564764327	-6.0	0.43373493975903615	1235.0	9.783132530120483	2011.0	-0.12048192771084337	2057.0	0.4354545454545454	-479.0	-0.81	-891.0	-0.15612244897959185	153.0	95.27405213717894	39926.0	0.9812312850030028	0.1822377092155602	-0.004207644729885959	0.06290372323676661	1.522815954050875E12	1.522815954059E12	27.0666214667408	25965.0	2488.28125	16000.0	3825.6410256410254	2611.0	0.0	0.0	
0.391132282992969	0.9451667944156782	-0.021671647346181343	0.3258681795378151	0.9885195648253887	-123.0	-0.0433972470998376	-50.0	1.1022419907435228	22.0	0.3855421686746988	1236.0	9.771084337349398	2015.0	-0.04819277108433735	2051.0	0.4409090909090909	-485.0	-0.8027272727272727	-883.0	-0.15306122448979592	150.0	95.27405213717894	39926.0	0.9809378130585367	0.18366662212406468	-0.004211276028161588	0.06332332890559275	1.5228159540586875E12	1.522815954061E12	27.0666214667408	25965.0	2496.09375	16256.0	3847.6190476190473	2626.0	0.0	0.0	
0.3941706960723246	0.9452663891887899	-0.021419202482149517	0.3255958710349572	0.9960639312977099	-135.0	0.14014790076335878	-51.0	1.5669131679389312	-9.0	0.2530120481927711	1234.0	9.795180722891567	2026.0	0.03614457831325302	2044.0	0.4390909090909091	-483.0	-0.8045454545454546	-885.0	-0.15510204081632656	152.0	95.27405213717894	39926.0	0.9806414660506149	0.18509444359038638	-0.004194135548377651	0.06375555851114283	1.5228159540665E12	1.522815954077E12	27.0666214667408	25965.0	2503.90625	16512.0	3853.4798534798533	2630.0	0.0	0.0	
0.39720390876058476	0.9453789834355995	-0.02113508768951541	0.3252873894675733	1.0188768566187345	-124.0	-0.028877448369725743	-53.0	1.4173619740813073	0.0	0.16867469879518074	1236.0	9.771084337349398	2033.0	0.060240963855421686	2042.0	0.43636363636363634	-480.0	-0.8018181818181818	-882.0	-0.15408163265306124	151.0	95.27571363791407	39926.0	0.9803433687530817	0.18652228957832243	-0.00416993080590899	0.06417886341618721	1.5228159540743125E12	1.522815954079E12	27.072678594504033	25966.0	2511.71875	16768.0	3844.688644688644	2624.0	0.0	0.0	
0.40023480254034643	0.9454881320240311	-0.020795720353668806	0.32499189253992733	1.0110393423370523	-125.0	-0.013388138578978496	-53.0	1.5133294186729298	-7.0	0.07228915662650603	1234.0	9.795180722891567	2041.0	0.12048192771084337	2037.0	0.43363636363636365	-477.0	-0.81	-891.0	-0.15612244897959185	153.0	95.27571363791407	39926.0	0.9800432470553581	0.18794828203685693	-0.004133864595237045	0.06460331527168621	1.522815954082125E12	1.522815954091E12	27.072678594504033	25966.0	2519.53125	17024.0	3859.340659340659	2634.0	0.0	0.0	
0.40327146840317635	0.9455783662327603	-0.02043340994604862	0.3247522579914846	1.0185886603344794	-122.0	-0.059087465765397994	-54.0	1.9139910261639757	-34.0	0.012048192771084338	1235.0	9.783132530120483	2046.0	0.16867469879518074	2033.0	0.43454545454545457	-478.0	-0.8081818181818182	-889.0	-0.15408163265306124	151.0	95.26975943440222	39924.0	0.9797402966212683	0.189373052793068	-0.004092243814621023	0.06503884679839533	1.5228159540899375E12	1.522815954094E12	27.072678594504033	25966.0	2527.34375	17280.0	3847.6190476190473	2626.0	0.0	0.0	
0.4063280455079865	0.9456623022264592	-0.020191961943066015	0.3245228725693197	1.300948415452232	-101.0	-0.37925052047189434	-73.0	2.021628498727736	-42.0	0.12048192771084337	1235.0	9.783132530120483	2037.0	0.28915662650602414	2023.0	0.43727272727272726	-481.0	-0.8109090909090909	-892.0	-0.15306122448979592	150.0	95.26975943440222	39924.0	0.9794330788681406	0.19080560575023067	-0.004074117706459757	0.06547874768255878	1.52281595409775E12	1.522815954111E12	27.072678594504033	25966.0	2535.15625	17536.0	3854.945054945055	2631.0	0.0	0.0	
0.4094014891241664	0.9457452207048423	-0.02011609033554868	0.32428586220116534	1.5812431842966188	-95.0	-0.4680020662342878	-92.0	1.9148252310164735	-36.0	0.3493975903614458	1237.0	9.759036144578314	2018.0	0.1927710843373494	2031.0	0.43272727272727274	-476.0	-0.8181818181818182	-900.0	-0.15306122448979592	150.0	95.26975943440222	39924.0	0.9791218592588548	0.19224556670339002	-0.004089081395020939	0.06591893671563893	1.5228159541055625E12	1.522815954112E12	27.072678594504033	25966.0	2542.96875	17792.0	3835.8974358974356	2618.0	0.0	0.0	
0.41248138249273836	0.9458263042535069	-0.020132530648185272	0.3240482732431276	1.676313091033383	-99.0	-0.4034408112111201	-99.0	1.9616041927765746	-40.0	0.5301204819277109	1236.0	9.771084337349398	2003.0	0.012048192771084338	2046.0	0.44	-484.0	-0.8118181818181818	-893.0	-0.15204081632653063	149.0	95.27273653576741	39925.0	0.978807667049539	0.19368793296973416	-0.004122774159653395	0.0663591612377599	1.522815954113375E12	1.522815954159E12	27.072678594504033	25966.0	2550.78125	18048.0	3860.8058608058604	2635.0	0.0	0.0	
0.41554040086420807	0.9459208163114008	-0.02019855199387638	0.3237681697852973	1.4654226745829801	-88.0	-0.5683912920554142	-86.0	1.7027989821882954	-24.0	0.5662650602409639	1236.0	9.771084337349398	2000.0	-0.1566265060240964	2060.0	0.43272727272727274	-476.0	-0.81	-891.0	-0.15408163265306124	151.0	95.26975943440222	39924.0	0.9784933067467284	0.1951231938048354	-0.004166528431678709	0.06678643524011006	1.5228159541211875E12	1.52281595416E12	27.072678594504033	25966.0	2558.59375	18304.0	3846.1538461538457	2625.0	0.0	0.0	
0.41857062068984435	0.9460180576439802	-0.020237490428797855	0.32348149652283265	1.1035024696901663	-99.0	-0.39627301302200263	-63.0	1.5834081724292777	-17.0	0.5783132530120483	1235.0	9.783132530120483	1999.0	-0.1927710843373494	2063.0	0.43727272727272726	-481.0	-0.8090909090909091	-890.0	-0.15612244897959185	153.0	95.26975943440222	39924.0	0.9781796490654419	0.19654552342455694	-0.0042045583770711084	0.06720679329375559	1.522815954129E12	1.522815954172E12	27.072678594504033	25966.0	2566.40625	18560.0	3852.014652014652	2629.0	0.0	0.0	
0.42160078339881135	0.9461228938970425	-0.0203053429855633	0.32317048548735283	1.2175851117178353	-96.0	-0.4391820359948738	-71.0	1.3275756393826257	-1.0	0.6265060240963856	1236.0	9.771084337349398	1995.0	-0.18072289156626506	2062.0	0.43272727272727274	-476.0	-0.8163636363636364	-898.0	-0.15408163265306124	151.0	95.26975943440222	39924.0	0.9778637518920409	0.19796925285541989	-0.00424874358897233	0.06762104581713742	1.5228159541368125E12	1.522815954173E12	27.072678594504033	25966.0	2574.21875	18816.0	3854.945054945055	2631.0	0.0	0.0	
0.42462672072256624	0.9462136096763745	-0.020381091950089785	0.32290000921977247	1.147693328908065	-114.0	-0.16119039716782824	-67.0	1.4553601062064399	-10.0	0.710843373493976	1236.0	9.771084337349398	1988.0	-0.1566265060240964	2060.0	0.43363636363636365	-477.0	-0.8181818181818182	-900.0	-0.15408163265306124	151.0	95.27273653576741	39925.0	0.9775460552534206	0.19938790879912596	-0.004294741970960437	0.06804209634182823	1.522815954144625E12	1.522815954174E12	27.072678594504033	25966.0	2582.03125	19072.0	3859.340659340659	2634.0	0.0	0.0	
0.4276246475317213	0.9463223996004506	-0.020430984494401866	0.32257788344371846	0.8951617332088524	-117.0	-0.11422922730517848	-51.0	1.0479433247295287	16.0	0.710843373493976	1235.0	9.783132530120483	1988.0	-0.14457831325301207	2059.0	0.43272727272727274	-476.0	-0.8072727272727273	-888.0	-0.15306122448979592	150.0	95.27273653576741	39925.0	0.9772290927684215	0.2007972603356649	-0.004335188212990062	0.06844681608268385	1.5228159541524375E12	1.522815954175E12	27.072678594504033	25966.0	2589.84375	19328.0	3847.6190476190473	2626.0	0.0	0.0	
0.4306196740538366	0.9464344900751045	-0.020420811090478677	0.32224950965158244	0.9040348964013084	-132.0	0.11559432933478753	-52.0	1.0404580152671747	16.0	0.674698795180723	1235.0	9.783132530120483	1991.0	-0.13253012048192772	2058.0	0.4354545454545454	-479.0	-0.8118181818181818	-893.0	-0.15714285714285717	154.0	95.27273653576741	39925.0	0.9769102443806648	0.20220584381216242	-0.004362908770950784	0.0688486468957645	1.52281595416025E12	1.522815954176E12	27.072678594504033	25966.0	2597.65625	19584.0	3857.8754578754574	2633.0	0.0	0.0	
0.4336182414449534	0.9465550456637939	-0.020418016997254453	0.3218954024373664	1.050295057116561	-123.0	-0.02263006875642889	-62.0	0.8346055979643773	29.0	0.674698795180723	1234.0	9.795180722891567	1991.0	-0.20481927710843376	2064.0	0.43363636363636365	-477.0	-0.8163636363636364	-898.0	-0.1510204081632653	148.0	95.26975943440222	39924.0	0.9765888243825046	0.20361775933090412	-0.004392212465621313	0.06924438349726635	1.5228159541680625E12	1.522815954196E12	27.072678594504033	25966.0	2605.46875	19840.0	3854.945054945055	2631.0	0.0	0.0	
0.4366010711387366	0.9466838177660822	-0.0203815356528378	0.3215188053353438	0.8902268573271688	-126.0	0.023330824642511842	-52.0	0.6913235136006881	38.0	0.6385542168674699	1235.0	9.783132530120483	1994.0	-0.3253012048192771	2074.0	0.43363636363636365	-477.0	-0.8163636363636364	-898.0	-0.1510204081632653	148.0	95.26975943440222	39924.0	0.976266913351125	0.20502407718805002	-0.004414045598412177	0.06963158672980636	1.522815954175875E12	1.522815954197E12	27.072678594504033	25966.0	2613.28125	20096.0	3862.271062271062	2636.0	0.0	0.0	
0.4395675647343068	0.9468226331764679	-0.0203000696804929	0.32111494589282635	0.7160625633908075	-134.0	0.14530507660278655	-41.0	0.6101532055730525	43.0	0.6265060240963856	1235.0	9.783132530120483	1995.0	-0.3493975903614458	2076.0	0.4509090909090909	-496.0	-0.8109090909090909	-892.0	-0.15408163265306124	151.0	95.26678233381847	39923.0	0.975944611611123	0.20642495605387287	-0.004425793010067698	0.07000903471412274	1.5228159541836875E12	1.522815954199E12	27.072678594504033	25966.0	2621.09375	20352.0	3847.6190476190473	2626.0	0.0	0.0	
0.4425192545361474	0.9469613569213762	-0.020236251422199276	0.32070965471278823	0.5584181509754026	-136.0	0.17483036471586064	-31.0	0.5143129770992366	49.0	0.6506024096385542	1236.0	9.771084337349398	1993.0	-0.3253012048192771	2074.0	0.43636363636363634	-480.0	-0.8	-880.0	-0.15510204081632656	152.0	95.26975943440222	39924.0	0.9756217872103257	0.2078189241219191	-0.004441021767239103	0.0703825292455493	1.5228159541915E12	1.5228159542E12	27.072678594504033	25966.0	2628.90625	20608.0	3853.4798534798533	2630.0	0.0	0.0	
0.445458009000819	0.9471009395484927	-0.020138211757609933	0.32030339169850286	0.47823111345090785	-146.0	0.3262963937878391	-26.0	0.25122400631745156	66.0	0.6385542168674699	1235.0	9.783132530120483	1994.0	-0.30120481927710846	2072.0	0.43363636363636365	-477.0	-0.8172727272727273	-899.0	-0.1510204081632653	148.0	95.26975943440222	39924.0	0.9752982664672492	0.20920705452942978	-0.00444837059005345	0.07075246822685578	1.5228159541993125E12	1.522815954205E12	27.072678594504033	25966.0	2636.71875	20864.0	3859.340659340659	2634.0	0.0	0.0	
0.44837767844185494	0.9472433842932233	-0.01995737160967032	0.3198932231716587	0.26121509986405944	-167.0	0.6446721740039735	-12.0	0.18843459165533877	70.0	0.5903614457831325	1236.0	9.771084337349398	1998.0	-0.27710843373493976	2070.0	0.4354545454545454	-479.0	-0.8045454545454546	-885.0	-0.1510204081632653	148.0	95.27273653576741	39925.0	0.9749747614812421	0.21058695676426853	-0.004436834526355584	0.07111724555088511	1.522815954207125E12	1.522815954216E12	27.072678594504033	25966.0	2644.53125	21120.0	3862.271062271062	2636.0	0.0	0.0	
0.4512634732490859	0.9473966561069344	-0.019754051894471047	0.31945164490287564	-0.1375084384898998	-161.0	0.5486835955756346	14.0	-0.011320558757854315	83.0	0.5421686746987953	1234.0	9.795180722891567	2002.0	-0.1927710843373494	2063.0	0.44	-484.0	-0.7945454545454546	-874.0	-0.15408163265306124	151.0	95.26380523401617	39922.0	0.9746529681023407	0.2119535985315085	-0.0044194185799814704	0.07146840265639663	1.5228159542149375E12	1.522815954223E12	27.072678594504033	25966.0	2652.34375	21376.0	3847.6190476190473	2626.0	0.0	0.0	
0.45415205883296833	0.9475431723945725	-0.019504951136623327	0.31903211958922184	-0.07551062512894526	-157.0	0.4839075716938313	10.0	0.09562616051165782	76.0	0.43373493975903615	1236.0	9.771084337349398	2011.0	-0.060240963855421686	2052.0	0.43636363636363634	-480.0	-0.8045454545454546	-885.0	-0.15204081632653063	149.0	95.26380523401617	39922.0	0.9743288313999603	0.21331999751013372	-0.004391141479479886	0.07182356745227633	1.52281595422275E12	1.522815954237E12	27.072678594504033	25966.0	2660.15625	21632.0	3856.4102564102564	2632.0	0.0	0.0	
0.45704982504713776	0.9477037276339905	-0.019239437847305713	0.3185710103885121	0.154003791177827	-140.0	0.22111788513755848	-5.0	-0.011885854808135353	83.0	0.3373493975903615	1236.0	9.771084337349398	2019.0	-0.060240963855421686	2052.0	0.43454545454545457	-478.0	-0.8127272727272727	-894.0	-0.15510204081632656	152.0	95.26678233381847	39923.0	0.974001622381379	0.21469378136448233	-0.0043585221228129006	0.07216940575317451	1.5228159542305625E12	1.522815954237E12	27.072678594504033	25966.0	2667.96875	21888.0	3837.362637362637	2619.0	0.0	0.0	
0.45992117922546405	0.9478640135826557	-0.018982552944030683	0.31810921778329887	-0.18290076335877845	-140.0	0.21964376590330795	17.0	-0.13394402035623268	91.0	0.3493975903614458	1236.0	9.771084337349398	2018.0	-0.10843373493975904	2056.0	0.4354545454545454	-479.0	-0.8154545454545454	-897.0	-0.15510204081632656	152.0	95.26678233381847	39923.0	0.9736753789317245	0.2160553183189685	-0.004326866997859268	0.07250954495950529	1.522815954238375E12	1.522815954252E12	27.072678594504033	25966.0	2675.78125	22144.0	3827.106227106227	2612.0	0.0	0.0	
0.4628034601670081	0.9480130029108166	-0.018791207435342412	0.3176763082685503	-0.05955209544512435	-129.0	0.05025024012941721	9.0	0.05014913300642061	79.0	0.4096385542168675	1236.0	9.771084337349398	2013.0	-0.12048192771084337	2057.0	0.43	-473.0	-0.8136363636363636	-895.0	-0.15204081632653063	149.0	95.26678233381847	39923.0	0.97334587560422	0.2174193086471065	-0.004309615286596296	0.07285655693038093	1.5228159542461875E12	1.522815954253E12	27.072678594504033	25966.0	2683.59375	22400.0	3847.6190476190473	2626.0	0.0	0.0	
0.4656844554321788	0.9481732789441105	-0.018541749492412222	0.31721228951938585	0.03244274809160305	-148.0	0.3399959823222179	3.0	-0.10285255122539053	89.0	0.4096385542168675	1237.0	9.759036144578314	2013.0	-0.060240963855421686	2052.0	0.4381818181818182	-482.0	-0.8036363636363636	-884.0	-0.15510204081632656	152.0	95.26678233381847	39923.0	0.973014499080026	0.2187852766757754	-0.00427839708504319	0.07319482637682076	1.522815954254E12	1.522815954256E12	27.072678594504033	25966.0	2691.40625	22656.0	3860.8058608058604	2635.0	0.0	0.0	
0.46856395817851076	0.9483306128289544	-0.018283757491517033	0.316756614743004	0.0474978795589485	-146.0	0.3072394352142892	2.0	-0.1174474879010131	90.0	0.3734939759036145	1235.0	9.783132530120483	2016.0	-0.08433734939759037	2054.0	0.4318181818181818	-475.0	-0.8127272727272727	-894.0	-0.15306122448979592	150.0	95.25785103675594	39920.0	0.9726812767589632	0.22014986863818012	-0.004244476299212136	0.07353335027108791	1.5228159542618125E12	1.52281595427E12	27.072678594504033	25966.0	2699.21875	22912.0	3847.6190476190473	2626.0	0.0	0.0	
0.4714349984207165	0.9484797939631028	-0.018029856790609602	0.31632420822286006	-0.12074947952810519	-136.0	0.15257261822147308	13.0	0.12758996728462427	74.0	0.3373493975903615	1236.0	9.771084337349398	2019.0	-0.10843373493975904	2056.0	0.43454545454545457	-478.0	-0.8027272727272727	-883.0	-0.1510204081632653	148.0	95.25785103675594	39920.0	0.9723470263610658	0.22150863861286757	-0.004210705444114355	0.07387457821422472	1.522815954269625E12	1.522815954273E12	27.072678594504033	25966.0	2707.03125	23168.0	3857.8754578754574	2633.0	0.0	0.0	
0.4742852730784739	0.9486346923997061	-0.017777420448604545	0.3158736831360025	-0.30317655749815353	-135.0	0.1363211031765576	25.0	-0.17857670524501384	94.0	0.3373493975903615	1235.0	9.783132530120483	2019.0	-0.04819277108433735	2051.0	0.4309090909090909	-474.0	-0.8118181818181818	-893.0	-0.1510204081632653	148.0	95.26082813499534	39921.0	0.9720132114727306	0.22285913797391824	-0.004176381728728291	0.07420700222786615	1.5228159542774375E12	1.522815954309E12	27.072678594504033	25966.0	2714.84375	23424.0	3844.688644688644	2624.0	0.0	0.0	
0.4771439486587341	0.948797864068351	-0.017490235344988565	0.3153992783867961	-0.10275983558426269	-134.0	0.1201800743785475	12.0	-0.19269915834801293	95.0	0.30120481927710846	1236.0	9.771084337349398	2022.0	0.060240963855421686	2042.0	0.44181818181818183	-486.0	-0.8036363636363636	-884.0	-0.15204081632653063	149.0	95.27273653576741	39925.0	0.9716764297853075	0.22421544141882882	-0.004133210019656309	0.07453367161204012	1.52281595428525E12	1.522815954311E12	27.072678594504033	25966.0	2722.65625	23680.0	3854.945054945055	2631.0	0.0	0.0	
0.4800178017069804	0.948959010124475	-0.017222749171642203	0.314928839604353	0.09636796810424485	-124.0	-0.0332571595273983	-1.0	0.03753585841396381	80.0	0.27710843373493976	1234.0	9.795180722891567	2024.0	0.0	2047.0	0.4381818181818182	-482.0	-0.8036363636363636	-884.0	-0.15612244897959185	153.0	95.27273653576741	39925.0	0.9713358590573004	0.22557825351937474	-0.0040940416155927535	0.07486213510056117	1.5228159542930625E12	1.522815954313E12	27.072678594504033	25966.0	2730.46875	23936.0	3844.688644688644	2624.0	0.0	0.0	
0.48287940865179585	0.9491204492922345	-0.016974605010410867	0.3144554587219829	-0.011112184752149713	-119.0	-0.10938254903855421	6.0	-0.14590781718040471	92.0	0.27710843373493976	1235.0	9.783132530120483	2024.0	-0.03614457831325302	2050.0	0.4309090909090909	-474.0	-0.8190909090909091	-901.0	-0.15510204081632656	152.0	95.26975943440222	39924.0	0.9709947468011947	0.22693547683086845	-0.004058641961540082	0.0751865577444434	1.522815954300875E12	1.522815954314E12	27.072678594504033	25966.0	2738.28125	24192.0	3862.271062271062	2636.0	0.0	0.0	
0.4857533886943159	0.9492643396108478	-0.016821478965261295	0.3140290613758633	0.09582793220989948	-114.0	-0.18503048634115898	-1.0	0.08401747563493266	77.0	0.43373493975903615	1234.0	9.795180722891567	2011.0	-0.08433734939759037	2054.0	0.43272727272727274	-476.0	-0.8172727272727273	-899.0	-0.1489795918367347	146.0	95.26975943440222	39924.0	0.97065015890542	0.2282941641281099	-0.004045496411829001	0.07552269593117493	1.5228159543086875E12	1.522815954315E12	27.072678594504033	25966.0	2746.09375	24448.0	3856.4102564102564	2632.0	0.0	0.0	
0.4886297910548574	0.9494018597931647	-0.01674047927574424	0.31361738627648716	0.11049618320610718	-116.0	-0.15333969465648836	-2.0	0.19036259541984732	70.0	0.5662650602409639	1236.0	9.771084337349398	2000.0	-0.18072289156626506	2062.0	0.4290909090909091	-472.0	-0.8090909090909091	-890.0	-0.1510204081632653	148.0	95.26975943440222	39924.0	0.9703032737068327	0.22965235626619843	-0.004049381693372375	0.07586141840941055	1.5228159543165E12	1.522815954325E12	27.072678594504033	25966.0	2753.90625	24704.0	3863.7362637362635	2637.0	0.0	0.0	
0.49149633214800215	0.949544096625285	-0.016648412323563438	0.31319137748536263	0.04874116921909783	-125.0	-0.014982694040111818	2.0	0.005974112180551691	82.0	0.5903614457831325	1235.0	9.783132530120483	1998.0	-0.2530120481927711	2068.0	0.4309090909090909	-474.0	-0.8172727272727273	-899.0	-0.15204081632653063	149.0	95.27571363791407	39926.0	0.9699555810579528	0.23100706351375339	-0.004050260389908218	0.07619384996215932	1.5228159543243125E12	1.522815954332E12	27.072678594504033	25966.0	2761.71875	24960.0	3835.8974358974356	2618.0	0.0	0.0	
0.4943337973992903	0.949692636726336	-0.01653459278578581	0.3127467073994308	-0.3179719159362922	-131.0	0.07671284516068218	26.0	-0.10093299406276401	89.0	0.6024096385542169	1234.0	9.795180722891567	1997.0	-0.28915662650602414	2071.0	0.4409090909090909	-485.0	-0.7990909090909091	-879.0	-0.15306122448979592	150.0	95.26380523401617	39922.0	0.96960945278443	0.23234984697999866	-0.0040453194592483515	0.07651596611114489	1.522815954332125E12	1.522815954346E12	27.072678594504033	25966.0	2769.53125	25216.0	3860.8058608058604	2635.0	0.0	0.0	
0.4971639030426814	0.9498384422790965	-0.016446736759715183	0.31230824263663354	-0.3465555191308015	-125.0	-0.01536083922633832	28.0	-0.2987870556830427	102.0	0.6144578313253012	1236.0	9.771084337349398	1996.0	-0.26506024096385544	2069.0	0.4318181818181818	-475.0	-0.8209090909090909	-903.0	-0.15000000000000002	147.0	95.26380523401617	39922.0	0.9692622782269276	0.23368851086776812	-0.004046386470513783	0.0768371176664163	1.5228159543399375E12	1.522815954348E12	27.072678594504033	25966.0	2777.34375	25472.0	3846.1538461538457	2625.0	0.0	0.0	
0.49997951693884124	0.9499940269015504	-0.016344176854588558	0.3118400499203477	-0.4665797803016202	-125.0	-0.015267175572519083	36.0	-0.43436976354496326	111.0	0.6144578313253012	1236.0	9.771084337349398	1996.0	-0.18072289156626506	2062.0	0.4409090909090909	-485.0	-0.8090909090909091	-890.0	-0.15408163265306124	151.0	95.25785103675594	39920.0	0.9689149554550448	0.23502285658165137	-0.004043451878712905	0.077147368565971	1.52281595434775E12	1.522815954359E12	27.072678594504033	25966.0	2785.15625	25728.0	3859.340659340659	2634.0	0.0	0.0	
0.5027759876869771	0.9501577994704096	-0.016156392875525425	0.3113504891192505	-0.5858894286375198	-148.0	0.3359703909322229	44.0	-0.7981494332639364	135.0	0.5421686746987953	1236.0	9.771084337349398	2002.0	-0.12048192771084337	2057.0	0.43272727272727274	-476.0	-0.8181818181818182	-900.0	-0.15510204081632656	152.0	95.26975943440222	39924.0	0.9685680933308279	0.2363503891264006	-0.0040188795431009465	0.0774479873754083	1.5228159543555625E12	1.52281595436E12	27.072678594504033	25966.0	2792.96875	25984.0	3844.688644688644	2624.0	0.0	0.0	
0.5055565075858253	0.950316914472377	-0.015919968775016936	0.31087669044478755	-0.8266347834084428	-143.0	0.25761059505196376	60.0	-0.6254023728501791	124.0	0.43373493975903615	1236.0	9.771084337349398	2011.0	-0.08433734939759037	2054.0	0.4354545454545454	-479.0	-0.8054545454545454	-886.0	-0.1510204081632653	148.0	95.26975943440222	39924.0	0.9682213322397965	0.23766939999449632	-0.003981502769305252	0.0777486703278447	1.522815954363375E12	1.522815954375E12	27.072678594504033	25966.0	2800.78125	26240.0	3821.245421245421	2608.0	0.0	0.0	
0.5083432557841662	0.9504838330784895	-0.01562691511839787	0.31038086696879996	-0.6232115920830098	-150.0	0.36293824564611227	47.0	-0.7895963797595651	135.0	0.3614457831325301	1235.0	9.783132530120483	2017.0	-0.060240963855421686	2052.0	0.43636363636363634	-480.0	-0.8163636363636364	-898.0	-0.1510204081632653	148.0	95.27273653576741	39925.0	0.9678719167201144	0.23899320684906966	-0.0039292899335361	0.07804332505184483	1.5228159543711875E12	1.522815954376E12	27.072678594504033	25966.0	2808.59375	26496.0	3847.6190476190473	2626.0	0.0	0.0	
0.5111118834157529	0.95065863894364	-0.01530513673135718	0.30986110596758554	-0.8027081061432205	-145.0	0.28444202108324224	59.0	-0.907033805888768	143.0	0.28915662650602414	1235.0	9.783132530120483	2023.0	-0.04819277108433735	2051.0	0.4354545454545454	-479.0	-0.81	-891.0	-0.15306122448979592	150.0	95.26975943440222	39924.0	0.9675229124141034	0.24031066025856	-0.0038688834904471244	0.0783277234468309	1.522815954379E12	1.52281595438E12	27.072678594504033	25966.0	2816.40625	26752.0	3835.8974358974356	2618.0	0.0	0.0	
0.5138809741159684	0.9508199208468386	-0.014969223410743656	0.3093822885546115	-0.8437598807534212	-145.0	0.28275893220109277	62.0	-0.5810560549256976	122.0	0.22891566265060243	1234.0	9.795180722891567	2028.0	0.012048192771084338	2046.0	0.43363636363636365	-477.0	-0.8181818181818182	-900.0	-0.15510204081632656	152.0	95.26975943440222	39924.0	0.9671719951822019	0.24162489758719013	-0.003804019030606042	0.07862105341747484	1.5228159543868125E12	1.522815954399E12	27.072678594504033	25966.0	2824.21875	27008.0	3857.8754578754574	2633.0	0.0	0.0	
0.5166641588183234	0.9509969559163177	-0.014580757983110967	0.30885626322698506	-0.5029187247418048	-146.0	0.2963628199371353	40.0	-0.7455770094297253	133.0	0.16867469879518074	1234.0	9.795180722891567	2033.0	0.04819277108433735	2043.0	0.4381818181818182	-482.0	-0.8027272727272727	-883.0	-0.15408163265306124	151.0	95.26678233381847	39923.0	0.9668174236533216	0.24294960730368617	-0.0037249219402323793	0.07890299479663396	1.522815954394625E12	1.522815954407E12	27.072678594504033	25966.0	2832.03125	27264.0	3816.8498168498168	2605.0	0.0	0.0	
0.519443172652078	0.9511594654030142	-0.014249835064515916	0.30837090260738514	-0.6068479085755097	-131.0	0.06562207044328391	47.0	-0.5427436275166279	120.0	0.1927710843373494	1234.0	9.795180722891567	2031.0	0.13253012048192772	2036.0	0.43636363636363634	-480.0	-0.8172727272727273	-899.0	-0.15408163265306124	151.0	95.26975943440222	39924.0	0.9664615154200846	0.24426867549308504	-0.0036595213145772395	0.0791931896599453	1.5228159544024375E12	1.522815954413E12	27.072678594504033	25966.0	2839.84375	27520.0	3850.5494505494503	2628.0	0.0	0.0	
0.5222269292332941	0.9513187289459281	-0.013904903141389015	0.3078949977270425	-0.5117166696254212	-131.0	0.06524054677791577	41.0	-0.4327179123025032	113.0	0.16867469879518074	1235.0	9.783132530120483	2033.0	0.21686746987951808	2029.0	0.43727272727272726	-481.0	-0.8109090909090909	-892.0	-0.15306122448979592	150.0	95.26975943440222	39924.0	0.9661031290287484	0.24558905004533652	-0.0035896402010815896	0.07948507446003758	1.52281595441025E12	1.52281595442E12	27.072678594504033	25966.0	2847.65625	27776.0	3859.340659340659	2634.0	0.0	0.0	
0.5250239498693097	0.9514782915744184	-0.013565388916099014	0.30741672187143904	-0.31028548735824896	-126.0	-0.011472444071835383	28.0	-0.29281207254114555	104.0	0.16867469879518074	1234.0	9.795180722891567	2033.0	0.1927710843373494	2031.0	0.43727272727272726	-481.0	-0.7945454545454546	-874.0	-0.1510204081632653	148.0	95.27571363791407	39926.0	0.9657411499436096	0.24691554880167693	-0.003520317256407733	0.07977687905637518	1.5228159544180625E12	1.522815954452E12	27.072678594504033	25966.0	2855.46875	28032.0	3849.0842490842488	2627.0	0.0	0.0	
0.5278201513728388	0.9516280012230836	-0.013314955082098498	0.3069639380437427	-0.36957093972097893	-106.0	-0.3167500219355969	32.0	-0.13845748881284528	94.0	0.24096385542168675	1235.0	9.783132530120483	2027.0	0.16867469879518074	2033.0	0.43363636363636365	-477.0	-0.8027272727272727	-883.0	-0.1510204081632653	148.0	95.26975943440222	39924.0	0.9653773888705925	0.24823904915775638	-0.0034733023670070954	0.08007376412606841	1.522815954425875E12	1.522815954453E12	27.072678594504033	25966.0	2863.28125	28288.0	3854.945054945055	2631.0	0.0	0.0	
0.5306276494206342	0.9517746385196175	-0.013124374763939895	0.3065171908032391	-0.16898582333696832	-116.0	-0.16226826608506026	19.0	-0.25980370774263817	102.0	0.39759036144578314	1236.0	9.771084337349398	2014.0	0.10843373493975904	2038.0	0.43454545454545457	-478.0	-0.8172727272727273	-899.0	-0.15204081632653063	149.0	95.26975943440222	39924.0	0.9650102597584481	0.24956685060333808	-0.0034413701977486525	0.0803725239869061	1.5228159544336875E12	1.522815954455E12	27.072678594504033	25966.0	2871.09375	28544.0	3847.6190476190473	2626.0	0.0	0.0	
0.5334354841276325	0.9519177051930843	-0.01295306825924714	0.3060798924506461	-0.15275850104094402	-121.0	-0.0850104094378907	18.0	-0.24306037473976427	101.0	0.45783132530120485	1235.0	9.783132530120483	2009.0	0.03614457831325302	2044.0	0.43363636363636365	-477.0	-0.8145454545454546	-896.0	-0.15000000000000002	147.0	95.27571363791407	39926.0	0.9646411847169158	0.250893771027335	-0.00341399694974452	0.08067245522763666	1.5228159544415E12	1.522815954467E12	27.072678594504033	25966.0	2878.90625	28800.0	3859.340659340659	2634.0	0.0	0.0	
0.5362345439147714	0.9520716729651866	-0.012803904637738074	0.3056069200186724	-0.1824298098072192	-119.0	-0.11506447578384447	20.0	-0.4706947858713944	116.0	0.5180722891566265	1236.0	9.771084337349398	2004.0	0.0	2047.0	0.4390909090909091	-483.0	-0.8090909090909091	-890.0	-0.15408163265306124	151.0	95.26975943440222	39924.0	0.9642713707029922	0.25221944444469047	-0.003391964918350405	0.0809602992866074	1.5228159544493125E12	1.522815954468E12	27.072678594504033	25966.0	2886.71875	29056.0	3857.8754578754574	2633.0	0.0	0.0	
0.5390353151664224	0.9522180901128536	-0.01263010886184922	0.3051576464910617	-0.15087057209023047	-133.0	0.09932241187065763	18.0	-0.3611802041341458	109.0	0.5180722891566265	1235.0	9.783132530120483	2004.0	0.012048192771084338	2046.0	0.44272727272727275	-487.0	-0.8181818181818182	-900.0	-0.15408163265306124	151.0	95.26975943440222	39924.0	0.9638994401340332	0.25354381436614226	-0.003362975362412347	0.08125327010450818	1.522815954457125E12	1.52281595447E12	27.072678594504033	25966.0	2894.53125	29312.0	3856.4102564102564	2632.0	0.0	0.0	
0.5418250703207439	0.9523726657161016	-0.012498316073726716	0.3046803204871074	-0.19582924644974214	-121.0	-0.08443856880890425	21.0	-0.6797731246535027	130.0	0.5783132530120483	1235.0	9.783132530120483	1999.0	0.024096385542168676	2045.0	0.44	-484.0	-0.8154545454545454	-897.0	-0.15204081632653063	149.0	95.26380523401617	39922.0	0.9635270933094919	0.2548652112941296	-0.003344684367391038	0.08153574441337193	1.5228159544649375E12	1.522815954471E12	27.072678594504033	25966.0	2902.34375	29568.0	3847.6190476190473	2626.0	0.0	0.0	
0.5446117047462801	0.9525171950311239	-0.012354004697551943	0.3042340739265862	-0.21000848176420717	-139.0	0.19083969465648853	22.0	-0.6301950805767594	127.0	0.6024096385542169	1237.0	9.759036144578314	1997.0	0.14457831325301207	2035.0	0.4290909090909091	-472.0	-0.8136363636363636	-895.0	-0.15204081632653063	149.0	95.26975943440222	39924.0	0.9631532914324484	0.25618239433083345	-0.003322647107582984	0.08182467875867579	1.52281595447275E12	1.522815954483E12	27.072678594504033	25966.0	2910.15625	29824.0	3857.8754578754574	2633.0	0.0	0.0	
0.5473772141896835	0.9526748866664219	-0.012165446515403964	0.30374753040346586	-0.376787145206866	-132.0	0.082915102694952	33.0	-0.9015225001054356	145.0	0.5180722891566265	1236.0	9.771084337349398	2004.0	0.24096385542168675	2027.0	0.4390909090909091	-483.0	-0.8145454545454546	-896.0	-0.15408163265306124	151.0	95.26975943440222	39924.0	0.9627804746868124	0.25749333756899806	-0.0032881326779062594	0.08209827557815673	1.5228159544805625E12	1.522815954489E12	27.072678594504033	25966.0	2917.96875	30080.0	3843.223443223443	2623.0	0.0	0.0	
0.5501540455800342	0.9528368816756817	-0.011930758021168964	0.3032483040869411	-0.14570925257948136	-140.0	0.20459692978776953	18.0	-0.8507675530576301	142.0	0.46987951807228917	1235.0	9.783132530120483	2008.0	0.3253012048192771	2020.0	0.44	-484.0	-0.8	-880.0	-0.15612244897959185	153.0	95.27273653576741	39925.0	0.962404279470755	0.25881056840477257	-0.003240645197872955	0.08236862726230845	1.522815954488375E12	1.522815954505E12	27.072678594504033	25966.0	2925.78125	30336.0	3854.945054945055	2631.0	0.0	0.0	
0.5529407987845117	0.952993445504947	-0.011724404376263703	0.3027639859141658	0.03829307971467924	-126.0	-0.010261544237266879	6.0	-0.8461185500354563	142.0	0.46987951807228917	1235.0	9.783132530120483	2008.0	0.42168674698795183	2012.0	0.4381818181818182	-482.0	-0.8163636363636364	-898.0	-0.15204081632653063	149.0	95.26975943440222	39924.0	0.9620248749038082	0.2601307989538331	-0.0032003144324243547	0.08264300024494785	1.5228159544961875E12	1.522815954506E12	27.072678594504033	25966.0	2933.59375	30592.0	3849.0842490842488	2627.0	0.0	0.0	
0.5557127363557579	0.953150630847323	-0.011494303866244901	0.3022776139478101	-0.05351808828410192	-129.0	0.03559575174244921	12.0	-1.0552605376700956	156.0	0.44578313253012053	1236.0	9.771084337349398	2010.0	0.6385542168674699	1994.0	0.43363636363636365	-477.0	-0.8118181818181818	-893.0	-0.15000000000000002	147.0	95.26975943440222	39924.0	0.9616456345199035	0.2614443247308871	-0.0031528285407423575	0.08291319766487981	1.522815954504E12	1.52281595451E12	27.072678594504033	25966.0	2941.40625	30848.0	3859.340659340659	2634.0	0.0	0.0	
0.5584981782332159	0.9533147132413916	-0.0112394370704943	0.30176933669911316	0.2673818857024961	-127.0	0.0048689911285329885	-9.0	-1.1564266556632963	163.0	0.42168674698795183	1236.0	9.771084337349398	2012.0	0.855421686746988	1976.0	0.4409090909090909	-485.0	-0.8063636363636364	-887.0	-0.15204081632653063	149.0	95.26082813499534	39921.0	0.9612626858016774	0.262765855893809	-0.0030979699154661173	0.08317786030033826	1.5228159545118125E12	1.522815954521E12	27.072678594504033	25966.0	2949.21875	31104.0	3853.4798534798533	2630.0	0.0	0.0	
0.561303257478137	0.9534670918275295	-0.011014016318763468	0.30129586164845323	0.571287860132972	-133.0	0.0964458671919892	-29.0	-1.0280719034720507	155.0	0.4819277108433735	1236.0	9.771084337349398	2007.0	1.0240963855421688	1962.0	0.43454545454545457	-478.0	-0.8181818181818182	-900.0	-0.15408163265306124	151.0	95.26380523401617	39922.0	0.9608751529990276	0.2640930706086239	-0.0030506825188696594	0.08345348250236663	1.522815954519625E12	1.522815954523E12	27.072678594504033	25966.0	2957.03125	31360.0	3859.340659340659	2634.0	0.0	0.0	
0.5641495831476822	0.9536205152778751	-0.010828591621664113	0.3008166458902387	1.2094542188839448	-124.0	-0.041474466261174646	-71.0	-0.9157039637506632	148.0	0.5662650602409639	1235.0	9.783132530120483	2000.0	1.1325301204819278	1953.0	0.44181818181818183	-486.0	-0.8027272727272727	-883.0	-0.15204081632653063	149.0	95.26380523401617	39922.0	0.9604799897953259	0.2654393568941786	-0.003014128104497271	0.08373202521225308	1.5228159545274375E12	1.522815954537E12	27.072678594504033	25966.0	2964.84375	31616.0	3847.6190476190473	2626.0	0.0	0.0	
0.5670176756497876	0.9537809771482348	-0.010634591954546366	0.3003144237030942	1.6915705700828323	-131.0	0.06561637160954982	-103.0	-1.2467110605814509	170.0	0.5783132530120483	1236.0	9.771084337349398	1999.0	1.216867469879518	1946.0	0.43	-473.0	-0.8154545454545454	-897.0	-0.15204081632653063	149.0	95.27273653576741	39925.0	0.9600798369239926	0.26679745977637254	-0.002974773231182041	0.08400579094977922	1.52281595453525E12	1.52281595454E12	27.072678594504033	25966.0	2972.65625	31872.0	3859.340659340659	2634.0	0.0	0.0	
0.5699164360476519	0.9539543672465666	-0.010399302932103921	0.29977144578783366	2.2475059574296212	-122.0	-0.07213538511248407	-140.0	-1.2706490569085993	172.0	0.5060240963855422	1236.0	9.771084337349398	2005.0	1.3012048192771084	1939.0	0.44181818181818183	-486.0	-0.8072727272727273	-888.0	-0.15306122448979592	150.0	95.26975943440222	39924.0	0.9596733991336721	0.26817312802414195	-0.002923424528808851	0.08427095579139421	1.5228159545430625E12	1.522815954557E12	27.072678594504033	25966.0	2980.46875	32128.0	3854.945054945055	2631.0	0.0	0.0	
0.5728396331427278	0.9541366010775628	-0.01015162092465501	0.29919941690578233	2.7394937725994373	-115.0	-0.1786259541984731	-173.0	-1.4624347127360395	185.0	0.45783132530120485	1236.0	9.771084337349398	2009.0	1.3614457831325302	1934.0	0.43363636363636365	-477.0	-0.8181818181818182	-900.0	-0.15408163265306124	151.0	95.26975943440222	39924.0	0.95926149350224	0.2695623967577376	-0.002868033009461663	0.08452973278517367	1.522815954550875E12	1.522815954558E12	27.072678594504033	25966.0	2988.28125	32384.0	3862.271062271062	2636.0	0.0	0.0	
0.5758046281259184	0.9543222907882793	-0.009945501798937858	0.29861355009205043	3.3358378961672193	-95.0	-0.48303425122896737	-213.0	-1.2105031773310413	169.0	0.49397590361445787	1235.0	9.783132530120483	2006.0	1.313253012048193	1938.0	0.44	-484.0	-0.8009090909090909	-881.0	-0.15306122448979592	150.0	95.26975943440222	39924.0	0.9588416047611343	0.27097170534612036	-0.0028239407263085563	0.08478878015210647	1.5228159545586875E12	1.522815954563E12	27.072678594504033	25966.0	2996.09375	32640.0	3847.6190476190473	2626.0	0.0	0.0	
0.5787959584162679	0.9545137294340446	-0.009731272424505508	0.2980081251558584	3.837547709923664	-93.0	-0.5110527989821882	-247.0	-1.3874045801526718	181.0	0.46987951807228917	1237.0	9.759036144578314	2008.0	1.3253012048192772	1937.0	0.43363636363636365	-477.0	-0.8181818181818182	-900.0	-0.15306122448979592	150.0	95.27273653576741	39925.0	0.9584158510395963	0.27239463290389887	-0.002777064695897781	0.08504415531282132	1.5228159545665E12	1.522815954603E12	27.072678594504033	25966.0	3003.90625	32896.0	3860.8058608058604	2635.0	0.0	0.0	
0.5818082334823266	0.9547132835752643	-0.00946124091643272	0.29737691753944057	4.229877783490883	-101.0	-0.3862674524383972	-274.0	-1.3954831309575602	182.0	0.4096385542168675	1237.0	9.759036144578314	2013.0	1.313253012048193	1938.0	0.4409090909090909	-485.0	-0.8145454545454546	-896.0	-0.15510204081632656	152.0	95.27273653576741	39925.0	0.9579849497068085	0.2738294056172758	-0.0027136586670781144	0.08529319322883719	1.5228159545743125E12	1.522815954606E12	27.072678594504033	25966.0	3011.71875	33152.0	3860.8058608058604	2635.0	0.0	0.0	
0.5848561904788702	0.9549359706351126	-0.009131930537797494	0.29667136672052985	4.956165892814983	-94.0	-0.491146612103565	-323.0	-1.769969308255293	207.0	0.30120481927710846	1237.0	9.759036144578314	2022.0	1.2409638554216869	1944.0	0.43363636363636365	-477.0	-0.8063636363636364	-887.0	-0.1510204081632653	148.0	95.26975943440222	39924.0	0.9575467322262738	0.27528711508454085	-0.002632535468562081	0.08552385414737833	1.522815954582125E12	1.522815954607E12	27.072678594504033	25966.0	3019.53125	33408.0	3859.340659340659	2634.0	0.0	0.0	
0.5879412465013268	0.95516466657819	-0.008821725407918136	0.2959436380147455	5.51090232922294	-74.0	-0.7939714229790564	-361.0	-1.6540223135642977	200.0	0.26506024096385544	1235.0	9.783132530120483	2025.0	1.0602409638554218	1959.0	0.43454545454545457	-478.0	-0.8154545454545454	-897.0	-0.15000000000000002	147.0	95.27273653576741	39925.0	0.9571009161883629	0.276763533924192	-0.002556137161093776	0.08575108561413472	1.5228159545899375E12	1.522815954609E12	27.072678594504033	25966.0	3027.34375	33664.0	3849.0842490842488	2627.0	0.0	0.0	
0.5910296612586388	0.9553920315503781	-0.008481679284105016	0.2952187784788811	5.6049228851846085	-73.0	-0.8051877239445396	-369.0	-1.5997818974918216	197.0	0.1927710843373494	1235.0	9.783132530120483	2031.0	1.036144578313253	1961.0	0.43272727272727274	-476.0	-0.8190909090909091	-901.0	-0.1479591836734694	145.0	95.27273653576741	39925.0	0.9566523337471416	0.2782411167929603	-0.002470139836166987	0.08597727415511322	1.52281595459775E12	1.52281595461E12	27.072678594504033	25966.0	3035.15625	33920.0	3857.8754578754574	2633.0	0.0	0.0	
0.5941353215980565	0.9556366463378112	-0.008040005352737368	0.29443837808639495	6.065021118301237	-79.0	-0.7094974231797574	-401.0	-1.8512031619328082	214.0	0.03614457831325302	1236.0	9.771084337349398	2044.0	1.072289156626506	1958.0	0.43727272727272726	-481.0	-0.8190909090909091	-901.0	-0.15000000000000002	147.0	95.27571363791407	39926.0	0.9561989460888771	0.27973163644853516	-0.0023534508256825306	0.08618728640325159	1.5228159546055625E12	1.52281595462E12	27.072678594504033	25966.0	3042.96875	34176.0	3862.271062271062	2636.0	0.0	0.0	
0.5972628151801327	0.955868983009899	-0.007609089613477915	0.29369472088356396	6.294028751889023	-58.0	-1.0301081102026581	-416.0	-1.271050490177083	176.0	-0.060240963855421686	1236.0	9.771084337349398	2052.0	1.036144578313253	1961.0	0.43272727272727274	-476.0	-0.8172727272727273	-899.0	-0.1479591836734694	145.0	95.26975943440222	39924.0	0.9557400410171013	0.2812285687909807	-0.0022386890042843345	0.08640864750676389	1.522815954613375E12	1.522815954621E12	27.072678594504033	25966.0	3050.78125	34432.0	3872.527472527472	2643.0	0.0	0.0	
0.6004439947526293	0.9561107290163501	-0.007152925568706002	0.2929182642233718	7.118456232805054	-68.0	-0.8774363544774674	-470.0	-1.1641802611694494	169.0	-0.060240963855421686	1235.0	9.783132530120483	2052.0	0.855421686746988	1976.0	0.4381818181818182	-482.0	-0.8054545454545454	-886.0	-0.15000000000000002	147.0	95.26975943440222	39924.0	0.9552708608747729	0.28275280732713337	-0.0021153509983455774	0.0866253865927835	1.5228159546211875E12	1.522815954628E12	27.072678594504033	25966.0	3058.59375	34688.0	3847.6190476190473	2626.0	0.0	0.0	
0.6036297990979779	0.9563418503815244	-0.006691094761650673	0.2921737401953396	7.148990583950091	-68.0	-0.8774363544774674	-472.0	-0.904638276436625	152.0	-0.12048192771084337	1235.0	9.783132530120483	2057.0	0.7590361445783133	1984.0	0.4318181818181818	-475.0	-0.8190909090909091	-901.0	-0.1479591836734694	145.0	95.26975943440222	39924.0	0.9547985765581868	0.2842760184282527	-0.001988951729979565	0.08684968405271251	1.522815954629E12	1.522815954636E12	27.072678594504033	25966.0	3066.40625	34944.0	3859.340659340659	2634.0	0.0	0.0	
0.6068506337954483	0.9565653968497319	-0.006249367706670217	0.291450831107038	7.622273026698183	-64.0	-0.9385050567675437	-503.0	-0.5992947649862433	132.0	-0.0963855421686747	1237.0	9.759036144578314	2055.0	0.7349397590361446	1986.0	0.4354545454545454	-479.0	-0.8172727272727273	-899.0	-0.14489795918367349	142.0	95.27273653576741	39925.0	0.9543186363690122	0.28581293715831524	-0.001867253556848375	0.08708282606737486	1.5228159546368125E12	1.522815954643E12	27.072678594504033	25966.0	3074.21875	35200.0	3852.014652014652	2629.0	0.0	0.0	
0.6100912926124411	0.9567958863699952	-0.0058061466619579285	0.29070246040650677	7.988685240438641	-61.0	-0.9843065834851009	-527.0	-0.6908978184213579	138.0	-0.10843373493975904	1236.0	9.771084337349398	2056.0	0.6385542168674699	1994.0	0.43272727272727274	-476.0	-0.8154545454545454	-897.0	-0.14489795918367349	142.0	95.27273653576741	39925.0	0.9538332442997896	0.28736093294655113	-0.0017437990122791316	0.0873086218516285	1.522815954644625E12	1.522815954651E12	27.072678594504033	25966.0	3082.03125	35456.0	3859.340659340659	2634.0	0.0	0.0	
0.6133582770951973	0.9570207072323005	-0.0053756256512932366	0.28996977183397515	8.309295927461541	-63.0	-0.9537722323400627	-548.0	-0.3855543069709762	118.0	-0.08433734939759037	1236.0	9.771084337349398	2054.0	0.46987951807228917	2008.0	0.4381818181818182	-482.0	-0.8109090909090909	-892.0	-0.14285714285714288	140.0	95.27273653576741	39925.0	0.9533413742701888	0.2889191848322813	-0.0016228712392512	0.08754024805436009	1.5228159546524375E12	1.522815954671E12	27.072678594504033	25966.0	3089.84375	35712.0	3844.688644688644	2624.0	0.0	0.0	
0.6166272243746164	0.9572524092292012	-0.004999571548942167	0.2892107005441197	8.370364629751618	-41.0	-1.2896500949354825	-552.0	-0.4618901848335716	123.0	-0.03614457831325302	1236.0	9.771084337349398	2050.0	0.3373493975903615	2019.0	0.4390909090909091	-483.0	-0.8	-880.0	-0.14285714285714288	140.0	95.26678233381847	39923.0	0.952846662636294	0.2904803492488957	-0.0015171309840849249	0.08776162325694246	1.52281595466025E12	1.522815954672E12	27.072678594504033	25966.0	3097.65625	35968.0	3854.945054945055	2631.0	0.0	0.0	
0.6198919493575386	0.9574710853764765	-0.004677045830856875	0.28849132727049104	8.232960049598946	-34.0	-1.396520323943116	-543.0	-0.23288255124578536	108.0	0.012048192771084338	1237.0	9.759036144578314	2046.0	0.2530120481927711	2026.0	0.43727272727272726	-481.0	-0.8190909090909091	-901.0	-0.14285714285714288	140.0	95.26678233381847	39923.0	0.9523500493867286	0.2920355613037646	-0.0014265325870604893	0.08799192787903252	1.5228159546680625E12	1.522815954679E12	27.072678594504033	25966.0	3105.46875	36224.0	3835.8974358974356	2618.0	0.0	0.0	
0.6231826805950136	0.9576872097476512	-0.004418441251418908	0.2877771458310588	8.584105087766885	-28.0	-1.4881233773782307	-566.0	-0.09547797109311361	99.0	0.12048192771084337	1238.0	9.74698795180723	2037.0	0.16867469879518074	2033.0	0.43636363636363634	-480.0	-0.8209090909090909	-903.0	-0.1469387755102041	144.0	95.27273653576741	39925.0	0.9518469121619864	0.29360174612834505	-0.0013545780432046572	0.08822491482797781	1.522815954675875E12	1.52281595469E12	27.072678594504033	25966.0	3113.28125	36480.0	3857.8754578754574	2633.0	0.0	0.0	
0.6264830960755188	0.9578868240752848	-0.004227206377038847	0.2871148951016073	8.614639438911922	-43.0	-1.2591157437904443	-568.0	0.13352966249467266	84.0	0.3132530120481928	1238.0	9.74698795180723	2021.0	0.03614457831325302	2044.0	0.4318181818181818	-475.0	-0.81	-891.0	-0.14183673469387756	139.0	95.26975943440222	39924.0	0.9513397060113485	0.2951671381819429	-0.0013025885495601623	0.08847275041951043	1.5228159546836875E12	1.522815954691E12	27.072678594504033	25966.0	3121.09375	36736.0	3850.5494505494503	2628.0	0.0	0.0	
0.6297904019340785	0.9580908731242735	-0.003987933544941968	0.2864366862362584	8.843647072499708	-75.0	-0.7705661254698337	-583.0	-0.24814972681830444	109.0	0.3373493975903615	1236.0	9.771084337349398	2019.0	-0.08433734939759037	2054.0	0.42727272727272725	-470.0	-0.8218181818181818	-904.0	-0.13979591836734695	137.0	95.26975943440222	39924.0	0.9508288421593528	0.29673686518772197	-0.0012351301237680666	0.0887142615933067	1.5228159546915E12	1.522815954701E12	27.072678594504033	25966.0	3128.90625	36992.0	3857.8754578754574	2633.0	0.0	0.0	
0.6330845812377387	0.9582901319444914	-0.003742246761977443	0.2857726694541984	8.645173790056962	-76.0	-0.7552989498973147	-570.0	-0.11074514666563269	100.0	0.3253012048192771	1237.0	9.759036144578314	2020.0	-0.13253012048192772	2058.0	0.43363636363636365	-477.0	-0.8172727272727273	-899.0	-0.13877551020408163	136.0	95.26975943440222	39924.0	0.950317421255738	0.29829895423347264	-0.001164895952039431	0.088956032839158	1.5228159546993125E12	1.522815954707E12	27.072678594504033	25966.0	3136.71875	37248.0	3850.5494505494503	2628.0	0.0	0.0	
0.6363874143064308	0.9584946028426992	-0.0034792538840610456	0.28508944405891934	8.843647072499708	-79.0	-0.7094974231797574	-583.0	-0.23288255124578536	108.0	0.30120481927710846	1236.0	9.771084337349398	2022.0	-0.2530120481927711	2068.0	0.43272727272727274	-476.0	-0.8218181818181818	-904.0	-0.13877551020408163	136.0	95.27273653576741	39925.0	0.9498020685698841	0.29986642750105535	-0.0010884896268464196	0.0891906463058508	1.522815954707125E12	1.522815954716E12	27.072678594504033	25966.0	3144.53125	37504.0	3860.8058608058604	2635.0	0.0	0.0	
0.6397021698414516	0.9586944788465205	-0.0032698692554929995	0.2844190643825573	8.950517301507343	-71.0	-0.83163482775991	-590.0	-0.0038749176579991043	93.0	0.3855421686746988	1238.0	9.74698795180723	2015.0	-0.42168674698795183	2082.0	0.4381818181818182	-482.0	-0.8218181818181818	-904.0	-0.14081632653061227	138.0	95.27273653576741	39925.0	0.9492822512615986	0.3014377048428342	-0.0010281293000642738	0.08942852167478668	1.5228159547149375E12	1.522815954753E12	27.072678594504033	25966.0	3152.34375	37760.0	3850.5494505494503	2628.0	0.0	0.0	
0.6429904920582249	0.9588948080807121	-0.0030214568047149857	0.28374569218691437	8.645173790056962	-84.0	-0.633161545317162	-570.0	-0.2023482001007472	106.0	0.3493975903614458	1238.0	9.74698795180723	2018.0	-0.4819277108433735	2087.0	0.4309090909090909	-474.0	-0.8090909090909091	-890.0	-0.13571428571428573	133.0	95.26678233381847	39923.0	0.9487640027256369	0.30299690229665244	-9.547366870034437E-4	0.08965953830195093	1.52281595472275E12	1.522815954754E12	27.072678594504033	25966.0	3160.15625	38016.0	3857.8754578754574	2633.0	0.0	0.0	
0.6462764055343293	0.9590908303852457	-0.002787088410930722	0.28308481274898556	8.599372263339404	-89.0	-0.5568256674545666	-567.0	-0.11074514666563269	100.0	0.39759036144578314	1237.0	9.759036144578314	2014.0	-0.5662650602409639	2094.0	0.43727272727272726	-481.0	-0.8136363636363636	-895.0	-0.13775510204081634	135.0	95.27571363791407	39926.0	0.94824357187016	0.3045534427041292	-8.850229235627046E-4	0.08989185546203886	1.5228159547305625E12	1.522815954757E12	27.072678594504033	25966.0	3167.96875	38272.0	3840.29304029304	2621.0	0.0	0.0	
0.6495625897280538	0.9592856231193554	-0.002561519054421561	0.2824261529969252	8.629906614484442	-96.0	-0.449955438446933	-569.0	-0.1870810245282281	105.0	0.44578313253012053	1237.0	9.759036144578314	2010.0	-0.6867469879518072	2104.0	0.43636363636363634	-480.0	-0.8172727272727273	-899.0	-0.13673469387755102	134.0	95.27571363791407	39926.0	0.9477205382217027	0.3061095025054588	-8.173846292593484E-4	0.0901226153137737	1.522815954738375E12	1.522815954758E12	27.072678594504033	25966.0	3175.78125	38528.0	3853.4798534798533	2630.0	0.0	0.0	
0.6528222345190159	0.9594832668984513	-0.0022986048920424587	0.2817562367675808	8.339830278606579	-116.0	-0.14461192699655134	-550.0	-0.4618901848335716	123.0	0.45783132530120485	1238.0	9.74698795180723	2009.0	-0.7349397590361446	2108.0	0.44	-484.0	-0.8072727272727273	-888.0	-0.13571428571428573	133.0	95.26975943440222	39924.0	0.9471992009200098	0.30765419699109203	-7.370378063466152E-4	0.09034392965514466	1.5228159547461875E12	1.522815954759E12	27.072678594504033	25966.0	3183.59375	38784.0	3846.1538461538457	2625.0	0.0	0.0	
0.6560609275363597	0.9596768489792445	-0.0020083338498050993	0.28109840292755006	8.095555469446275	-119.0	-0.09881040027899408	-534.0	-0.5534932382686861	129.0	0.3855421686746988	1237.0	9.759036144578314	2015.0	-0.7349397590361446	2108.0	0.43363636363636365	-477.0	-0.82	-902.0	-0.1306122448979592	128.0	95.27273653576741	39925.0	0.9466787227178183	0.3091878584598384	-6.470432654013842E-4	0.09056404070817559	1.522815954754E12	1.522815954762E12	27.072678594504033	25966.0	3191.40625	39040.0	3841.7582417582416	2622.0	0.0	0.0	
0.6592785912833719	0.9598745491836578	-0.0016869688319621694	0.2804246850147629	7.866547835858488	-112.0	-0.20568062928662767	-519.0	-0.538226062696167	128.0	0.28915662650602414	1238.0	9.74698795180723	2023.0	-0.6867469879518072	2104.0	0.4381818181818182	-482.0	-0.8081818181818182	-889.0	-0.13367346938775512	131.0	95.27273653576741	39925.0	0.9461591657148108	0.31071308644578743	-5.4607478963016E-4	0.09077396569231612	1.5228159547618125E12	1.522815954771E12	27.072678594504033	25966.0	3199.21875	39296.0	3850.5494505494503	2628.0	0.0	0.0	
0.6624868360642516	0.9600677497220106	-0.0013300485037253565	0.2797644489828759	7.774944782423374	-117.0	-0.12934475142403226	-513.0	-0.4771573604060907	124.0	0.1927710843373494	1238.0	9.74698795180723	2031.0	-0.674698795180723	2103.0	0.43454545454545457	-478.0	-0.8227272727272728	-905.0	-0.1326530612244898	130.0	95.26678233381847	39923.0	0.9456386913550677	0.3122323730571134	-4.3255718226081156E-4	0.09098474334569813	1.522815954769625E12	1.522815954783E12	27.072678594504033	25966.0	3207.03125	39552.0	3821.245421245421	2608.0	0.0	0.0	
0.665671860356002	0.9602603791058697	-9.394326395290179E-4	0.27910414147011053	7.484868446545511	-115.0	-0.15987910256907042	-494.0	-0.41608865811601436	120.0	0.07228915662650603	1236.0	9.771084337349398	2041.0	-0.710843373493976	2106.0	0.4309090909090909	-474.0	-0.8272727272727273	-910.0	-0.1346938775510204	132.0	95.26082813499534	39921.0	0.9451195770867723	0.3137407187697404	-3.069357832258258E-4	0.09119019784819167	1.5228159547774375E12	1.522815954792E12	27.072678594504033	25966.0	3214.84375	39808.0	3846.1538461538457	2625.0	0.0	0.0	
