belt	belt	belt	belt	belt	belt	belt	belt	belt	belt	belt	belt	belt	belt	belt	belt	belt	belt	belt	belt	belt	belt	belt	belt	belt	belt	belt	belt	belt	belt	belt	belt	belt	belt	belt	belt	Annotation	Annotation	
Axis Angle A	Axis Angle X	Axis Angle Y	Axis Angle Z	Gyroscope X	Gyroscope X	Gyroscope Y	Gyroscope Y	Gyroscope Z	Gyroscope Z	Low Noise Accelerometer X	Low Noise Accelerometer X	Low Noise Accelerometer Y	Low Noise Accelerometer Y	Low Noise Accelerometer Z	Low Noise Accelerometer Z	Magnetometer X	Magnetometer X	Magnetometer Y	Magnetometer Y	Magnetometer Z	Magnetometer Z	Pressure	Pressure	Quaternion 0	Quaternion 1	Quaternion 2	Quaternion 3	SyncTimestamp	SystemTimestamp	Temperature	Temperature	Timestamp	Timestamp	VSenseBatt	VSenseBatt	Level	Pulse	
CAL	CAL	CAL	CAL	CAL	RAW	CAL	RAW	CAL	RAW	CAL	RAW	CAL	RAW	CAL	RAW	CAL	RAW	CAL	RAW	CAL	RAW	CAL	RAW	CAL	CAL	CAL	CAL	CAL	UNCAL	CAL	RAW	CAL	RAW	CAL	RAW	no format	no format	
local	local	local	local	deg/s	No Units	deg/s	No Units	deg/s	No Units	m/s^2	No Units	m/s^2	No Units	m/s^2	No Units	local flux	No Units	local flux	No Units	local flux	No Units	kPa	No Units	local	local	local	local	mSecs	mSecs	Degrees Celsius	No Units	mSecs	No Units	mV	No Units	no unit	no unit	
0.003169463544035177	0.9218580960975218	-0.0822521516585753	0.37869807796469157	0.6020395992366412	-116.0	-0.17897185114503816	-28.0	0.21833253816793893	90.0	0.5421686746987953	1236.0	9.771084337349398	2002.0	-0.24096385542168675	2067.0	0.4381818181818182	-482.0	-0.8381818181818181	-922.0	-0.1285714285714286	126.0	94.74895638038862	40042.0	0.9999987443128682	0.001460897202700473	-1.303475434915484E-4	6.001346249587392E-4	1.52283131862025E12	1.522831318671E12	23.900675055474178	25447.0	1402.34375	45952.0	3872.527472527472	2643.0	0.0	0.0	
0.006303164088133145	0.9226542324289042	-0.08101573498084995	0.3770220392056989	0.13740458015267176	-110.0	-0.0916030534351145	-37.0	-0.015267175572519083	91.0	0.5301204819277109	1236.0	9.771084337349398	2003.0	-0.28915662650602414	2071.0	0.44	-484.0	-0.8254545454545454	-908.0	-0.12959183673469388	127.0	94.74895638038862	40042.0	0.9999950337694203	0.0029078156981676515	-2.5532731298022666E-4	0.0011882139219926984	1.5228313186280625E12	1.522831318672E12	23.900675055474178	25447.0	1410.15625	46208.0	3866.6666666666665	2639.0	0.0	0.0	
0.00942268850104694	0.9225230185367425	-0.07902774372666743	0.3777643392197223	-0.09923664122137404	-119.0	0.0916030534351145	-26.0	0.05343511450381679	87.0	0.5180722891566265	1236.0	9.771084337349398	2004.0	-0.30120481927710846	2072.0	0.43363636363636365	-477.0	-0.8336363636363636	-917.0	-0.1306122448979592	128.0	94.74895638038862	40042.0	0.9999889016382055	0.00434630744032311	-3.723255286312214E-4	0.0017797712634246093	1.522831318635875E12	1.522831318674E12	23.900675055474178	25447.0	1417.96875	46464.0	3875.457875457875	2645.0	0.0	0.0	
0.012528979197088105	0.9224777082158129	-0.07836675138193562	0.3780126057730134	-0.2798982188295165	-123.0	0.12213740458015267	-12.0	-0.010178117048346128	90.0	0.5421686746987953	1238.0	9.74698795180723	2002.0	-0.3373493975903615	2075.0	0.43636363636363634	-480.0	-0.84	-924.0	-0.1316326530612245	129.0	94.74895638038862	40042.0	0.9999803781492047	0.005778814210699982	-4.909244879296034E-4	0.002368040548415904	1.5228313186436875E12	1.522831318675E12	23.900675055474178	25447.0	1425.78125	46720.0	3868.131868131868	2640.0	0.0	0.0	
0.015641273841828642	0.9223168785550818	-0.07951555665634887	0.37816511179981493	-0.24045801526717556	-119.0	0.030534351145038167	-10.0	0.11450381679389313	82.0	0.6144578313253012	1236.0	9.771084337349398	1996.0	-0.3253012048192771	2074.0	0.43636363636363634	-480.0	-0.8318181818181818	-915.0	-0.1326530612244898	130.0	94.74599978980173	40041.0	0.9999694189749434	0.0072130319050077545	-6.218559590985987E-4	0.00295746188776918	1.5228313186515E12	1.522831318676E12	23.900675055474178	25447.0	1433.59375	46976.0	3873.9926739926736	2644.0	0.0	0.0	
0.018754910172224006	0.9222556046451825	-0.07988702547082849	0.378236252710883	-0.20763358778625957	-133.0	0.23816793893129762	-9.0	0.13740458015267176	79.0	0.6506024096385542	1235.0	9.783132530120483	1993.0	-0.26506024096385544	2069.0	0.4381818181818182	-482.0	-0.8345454545454546	-918.0	-0.1316326530612245	129.0	94.75191297174631	40043.0	0.9999560319902554	0.008648283758971196	-7.491260139293892E-4	0.0035468414883009967	1.5228313186593125E12	1.522831318678E12	23.900675055474178	25447.0	1441.40625	47232.0	3872.527472527472	2643.0	0.0	0.0	
0.02185551218020591	0.9221431227196281	-0.08095738485162475	0.37828291404861986	-0.37150127226463103	-130.0	0.15267175572519084	4.0	0.022900763358778626	85.0	0.6987951807228916	1236.0	9.771084337349398	1989.0	-0.2530120481927711	2068.0	0.4354545454545454	-479.0	-0.8427272727272728	-927.0	-0.12959183673469388	127.0	94.75191297174631	40043.0	0.999940292667588	0.010076754568411195	-8.846649479359271E-4	0.004133701145055661	1.522831318667125E12	1.522831318703E12	23.900675055474178	25447.0	1449.21875	47488.0	3878.388278388278	2647.0	0.0	0.0	
0.02495649656736157	0.922545136116367	-0.08105778943418737	0.37727987834078824	-0.2420937840785169	-128.0	0.10032715376226824	-1.0	-0.2857142857142856	105.0	0.6265060240963856	1237.0	9.759036144578314	1995.0	-0.30120481927710846	2072.0	0.4354545454545454	-479.0	-0.8381818181818181	-922.0	-0.1306122448979592	128.0	94.74895638038862	40042.0	0.9999221476700706	0.011511448521029631	-0.0010114329735975217	0.00470766982288061	1.5228313186749375E12	1.522831318705E12	23.900675055474178	25447.0	1457.03125	47744.0	3875.457875457875	2645.0	0.0	0.0	
0.028042181479790193	0.9229826793548727	-0.08073375440249454	0.376277868749417	-0.4561068702290076	-126.0	0.05725190839694656	15.0	-0.3568702290076336	112.0	0.5783132530120483	1238.0	9.74698795180723	1999.0	-0.27710843373493976	2070.0	0.4381818181818182	-482.0	-0.8281818181818181	-911.0	-0.1306122448979592	128.0	94.74599978980173	40041.0	0.9999017061175552	0.012940799881427377	-0.0011319382072578358	0.005275653279538972	1.52283131868275E12	1.522831318714E12	23.900675055474178	25447.0	1464.84375	48000.0	3884.249084249084	2651.0	0.0	0.0	
0.03114464515343927	0.9232135680206942	-0.08004544340489514	0.37585826425932267	-0.2985581000848176	-128.0	0.08142493638676837	8.0	-0.0729431721798133	96.0	0.5542168674698795	1236.0	9.771084337349398	2001.0	-0.24096385542168675	2067.0	0.44	-484.0	-0.83	-913.0	-0.1285714285714286	126.0	94.74599978980173	40041.0	0.9998787538349679	0.014375998448682774	-0.001246443087572889	0.005852749581552407	1.5228313186905625E12	1.522831318725E12	23.900675055474178	25447.0	1472.65625	48256.0	3865.201465201465	2638.0	0.0	0.0	
0.03424142239096368	0.9232474747660303	-0.07949987303294664	0.3758907694077891	-0.4366412213740458	-134.0	0.16488549618320605	19.0	0.07175572519083974	87.0	0.5662650602409639	1236.0	9.771084337349398	2000.0	-0.21686746987951808	2065.0	0.4318181818181818	-475.0	-0.8390909090909091	-923.0	-0.1326530612244898	130.0	94.74304319998564	40040.0	0.9998534442039873	0.015805881184326288	-0.0013610278735354455	0.006435202913552672	1.522831318698375E12	1.522831318726E12	23.900675055474178	25447.0	1480.46875	48512.0	3876.9230769230767	2646.0	0.0	0.0	
0.037346956061871765	0.9234854146865216	-0.0792131638013538	0.37536643902012423	-0.22900763358778625	-129.0	0.07356002775850096	8.0	-0.10270645385149212	98.0	0.5783132530120483	1237.0	9.759036144578314	1999.0	-0.24096385542168675	2067.0	0.4381818181818182	-482.0	-0.8409090909090909	-925.0	-0.13367346938775512	131.0	94.74599978980173	40041.0	0.9998256556753402	0.017243682420426107	-0.0014790993104871115	0.007008989598332131	1.5228313187061875E12	1.522831318727E12	23.900675055474178	25447.0	1488.28125	48768.0	3869.5970695970695	2641.0	0.0	0.0	
0.040427708876168846	0.9236982956258692	-0.07888796394603614	0.37491085313998374	-0.6221374045801527	-127.0	0.036895674300254526	35.0	-0.09414758269720108	98.0	0.5542168674698795	1237.0	9.759036144578314	2001.0	-0.24096385542168675	2067.0	0.4381818181818182	-482.0	-0.8209090909090909	-903.0	-0.1346938775510204	132.0	94.74599978980173	40041.0	0.9997957070006952	0.018670231389394297	-0.0015945212280734239	0.007577877334693965	1.522831318714E12	1.522831318728E12	23.900675055474178	25447.0	1496.09375	49024.0	3871.0622710622706	2642.0	0.0	0.0	
0.04352155478193085	0.9239058929373177	-0.07843625765605129	0.3744938644099765	-0.39107457428068115	-129.0	0.06459189665296529	23.0	-0.13270698766881975	101.0	0.5542168674698795	1237.0	9.759036144578314	2001.0	-0.1927710843373494	2063.0	0.4354545454545454	-479.0	-0.8318181818181818	-915.0	-0.12959183673469388	127.0	94.74895638038862	40042.0	0.9997632436265237	0.020103323786134948	-0.0017066992388360977	0.008148634476417883	1.5228313187218125E12	1.522831318735E12	23.900675055474178	25447.0	1503.90625	49280.0	3866.6666666666665	2639.0	0.0	0.0	
0.04660406338688274	0.9242272380922028	-0.07815736598326838	0.37375852968348505	-0.47001090512540883	-124.0	-0.016357688113413274	30.0	-0.3827699018538713	118.0	0.5662650602409639	1237.0	9.759036144578314	2000.0	-0.1566265060240964	2060.0	0.44363636363636366	-488.0	-0.8336363636363636	-917.0	-0.1285714285714286	126.0	94.76251642690976	40042.0	0.9997285199439384	0.021534423460163248	-0.0018210606074420333	0.008708544953366988	1.522831318729625E12	1.522831318748E12	23.95001865645018	25455.0	1511.71875	49536.0	3862.271062271062	2636.0	0.0	0.0	
0.04969245329612747	0.9244598783929018	-0.07792857701087293	0.3732305857338529	-0.42340966921119594	-134.0	0.13740458015267176	29.0	-0.2198473282442749	109.0	0.6024096385542169	1236.0	9.771084337349398	1997.0	-0.1566265060240964	2060.0	0.4381818181818182	-482.0	-0.8336363636363636	-917.0	-0.1326530612244898	130.0	94.76251642690976	40042.0	0.9996913483896196	0.02296697644240234	-0.0019360318757262332	0.009272417625127347	1.5228313187374375E12	1.522831318756E12	23.95001865645018	25455.0	1519.53125	49792.0	3872.527472527472	2643.0	0.0	0.0	
0.05278761769906332	0.9247086461144718	-0.0774097490176178	0.37272194805073433	-0.33587786259541985	-136.0	0.15935114503816794	25.0	-0.1450381679389313	105.0	0.5542168674698795	1237.0	9.759036144578314	2001.0	-0.16867469879518074	2061.0	0.43727272727272726	-481.0	-0.8263636363636364	-909.0	-0.1326530612244898	130.0	94.75955951584189	40041.0	0.9996517036474768	0.02440374960661338	-0.0020429009073014296	0.009836409696544883	1.52283131874525E12	1.522831318764E12	23.95001865645018	25455.0	1527.34375	50048.0	3872.527472527472	2643.0	0.0	0.0	
0.0558693666622383	0.9249373264240479	-0.0769820352383043	0.37224280844384794	-0.5145936237090255	-131.0	0.07364167040862152	38.0	-0.22810956443646155	111.0	0.5421686746987953	1237.0	9.759036144578314	2002.0	-0.12048192771084337	2057.0	0.44	-484.0	-0.8372727272727273	-921.0	-0.13367346938775512	131.0	94.75955951584189	40041.0	0.9996098521054647	0.025834471035552586	-0.002150189102337165	0.010397132625315261	1.5228313187530625E12	1.522831318776E12	23.95001865645018	25455.0	1535.15625	50304.0	3866.6666666666665	2639.0	0.0	0.0	
0.05895745152994183	0.9252407356877795	-0.07653730904337043	0.37157989901005156	-0.3638676844783715	-124.0	-0.03731976251060218	30.0	-0.35284139100933	120.0	0.5180722891566265	1236.0	9.771084337349398	2004.0	-0.08433734939759037	2054.0	0.44545454545454544	-490.0	-0.8409090909090909	-925.0	-0.1326530612244898	130.0	94.75955951584189	40041.0	0.9995655338274247	0.027270967789767325	-0.002255895583851119	0.01095211555908795	1.522831318760875E12	1.522831318779E12	23.95001865645018	25455.0	1542.96875	50560.0	3863.7362637362635	2637.0	0.0	0.0	
0.06204436441780158	0.9254727723900262	-0.07574362994574285	0.3711644515403248	-0.4057854560064283	-138.0	0.17838489353153886	34.0	-0.22740056247488946	113.0	0.4819277108433735	1237.0	9.759036144578314	2007.0	-0.07228915662650603	2053.0	0.4354545454545454	-479.0	-0.84	-924.0	-0.1316326530612245	129.0	94.76843025135835	40044.0	0.9995188506945593	0.028705580198222273	-0.0023493558198335427	0.011512484481747461	1.5228313187686875E12	1.522831318815E12	23.95001865645018	25455.0	1550.78125	50816.0	3868.131868131868	2640.0	0.0	0.0	
0.0651401300570551	0.9258195838474194	-0.07518123804166504	0.3704131201931304	-0.21755725190839695	-123.0	-0.05954198473282451	23.0	-0.3687022900763359	123.0	0.46987951807228917	1237.0	9.759036144578314	2008.0	-0.08433734939759037	2054.0	0.4390909090909091	-483.0	-0.8245454545454546	-907.0	-0.13367346938775512	131.0	94.753645696019	40039.0	0.9994696423185284	0.030148673059530364	-0.0024482249084746494	0.012062246524592505	1.5228313187765E12	1.522831318816E12	23.95001865645018	25455.0	1558.59375	51072.0	3872.527472527472	2643.0	0.0	0.0	
0.0682319114390804	0.9260185675320491	-0.07441029739306622	0.37007123669364733	-0.3751363140676117	-133.0	0.09596510359869147	34.0	-0.07633587786259542	105.0	0.45783132530120485	1236.0	9.771084337349398	2009.0	-0.0963855421686747	2055.0	0.4409090909090909	-485.0	-0.83	-913.0	-0.12959183673469388	127.0	94.753645696019	40039.0	0.99941810722463	0.031585880487159476	-0.0025380859983566584	0.01262288496557203	1.5228313187843125E12	1.522831318818E12	23.95001865645018	25455.0	1566.40625	51328.0	3866.6666666666665	2639.0	0.0	0.0	
0.07132665107668967	0.9262860121206457	-0.07365814249372338	0.3695520285346587	-0.26648160999306036	-125.0	-0.030534351145038167	28.0	-0.22553782095766817	115.0	0.42168674698795183	1235.0	9.783132530120483	2012.0	-0.07228915662650603	2053.0	0.44181818181818183	-486.0	-0.8318181818181818	-915.0	-0.1306122448979592	128.0	94.76547333874858	40043.0	0.9993641310054318	0.03302743743638141	-0.002626337503814815	0.01317666070976636	1.522831318792125E12	1.52283131882E12	23.95001865645018	25455.0	1574.21875	51584.0	3860.8058608058604	2635.0	0.0	0.0	
0.07442645952604332	0.9265008267972353	-0.07280815855055223	0.3691817844809053	-0.20909392631928317	-131.0	0.06239628277464313	25.0	-0.12412877530700309	109.0	0.39759036144578314	1237.0	9.759036144578314	2014.0	-0.060240963855421686	2052.0	0.43363636363636365	-477.0	-0.84	-924.0	-0.1316326530612245	129.0	94.75660260554497	40040.0	0.9993076676673976	0.0344701310108635	-0.0027088014293229616	0.013735275900262316	1.5228313187999375E12	1.522831318822E12	23.95001865645018	25455.0	1582.03125	51840.0	3871.0622710622706	2642.0	0.0	0.0	
0.07754196583181922	0.9267893801504578	-0.07204963710819183	0.3686058798134697	0.08969465648854962	-138.0	0.16666666666666674	6.0	-0.2105597964376591	115.0	0.44578313253012053	1237.0	9.759036144578314	2010.0	-0.10843373493975904	2056.0	0.43636363636363634	-480.0	-0.8309090909090909	-914.0	-0.1316326530612245	129.0	94.75660260554497	40040.0	0.9992484995862131	0.035923533668393674	-0.0027927354584398527	0.014287632138919596	1.52283131880775E12	1.522831318823E12	23.95001865645018	25455.0	1589.84375	52096.0	3875.457875457875	2645.0	0.0	0.0	
0.08064872933329675	0.926971620279154	-0.07156315687642048	0.3682422161771989	-0.15816793893129757	-127.0	-0.007938931297709863	22.0	0.05740458015267183	98.0	0.46987951807228917	1237.0	9.759036144578314	2008.0	-0.10843373493975904	2056.0	0.4390909090909091	-483.0	-0.82	-902.0	-0.1316326530612245	129.0	94.753645696019	40039.0	0.9991870829700138	0.03736941228074418	-0.002884956836781241	0.014845109488202668	1.5228313188155625E12	1.522831318824E12	23.95001865645018	25455.0	1597.65625	52352.0	3865.201465201465	2638.0	0.0	0.0	
0.08376417428513121	0.9271326998459598	-0.07115504842144678	0.367915637015331	-0.014679976512037663	-123.0	-0.06870229007633588	13.0	0.05519671168526127	98.0	0.46987951807228917	1237.0	9.759036144578314	2008.0	-0.0963855421686747	2055.0	0.4354545454545454	-479.0	-0.8381818181818181	-922.0	-0.1326530612244898	130.0	94.76843025135835	40044.0	0.9991230735849274	0.038818901439251055	-0.0029792507718002003	0.015404570298976968	1.522831318823375E12	1.522831318836E12	23.95001865645018	25455.0	1605.46875	52608.0	3875.457875457875	2645.0	0.0	0.0	
0.08686886236976477	0.9272642661374196	-0.07085687917316673	0.36764151481892776	-0.18207520497596835	-126.0	-0.020356234096692037	24.0	0.08368674017528978	96.0	0.5180722891566265	1237.0	9.759036144578314	2004.0	-0.07228915662650603	2053.0	0.43454545454545457	-478.0	-0.8263636363636364	-909.0	-0.12959183673469388	127.0	94.76843025135835	40044.0	0.9990568733790891	0.04026253362498187	-0.0030766606505335872	0.015963279717437835	1.5228313188311875E12	1.522831318837E12	23.95001865645018	25455.0	1613.28125	52864.0	3869.5970695970695	2641.0	0.0	0.0	
0.08998216949760401	0.9274516157151009	-0.07044439887362676	0.3672479913830502	-0.007633587786259542	-130.0	0.041439476553980274	13.0	0.03489640130861514	99.0	0.49397590361445787	1237.0	9.759036144578314	2006.0	-0.10843373493975904	2056.0	0.44	-484.0	-0.8336363636363636	-917.0	-0.13367346938775512	131.0	94.76251642690976	40042.0	0.998988071859059	0.041712978366492605	-0.0031683007894600674	0.016517311803794198	1.522831318839E12	1.522831318839E12	23.95001865645018	25455.0	1621.09375	53120.0	3869.5970695970695	2641.0	0.0	0.0	
0.09308471192958631	0.9276007433182071	-0.07014211445509626	0.36692907322154533	-0.17530929191892608	-133.0	0.08581205580415897	24.0	0.06422742827059759	97.0	0.5421686746987953	1236.0	9.771084337349398	2002.0	-0.14457831325301207	2059.0	0.43727272727272726	-481.0	-0.8263636363636364	-909.0	-0.1306122448979592	128.0	94.75660260554497	40040.0	0.998917100052465	0.04315713894986383	-0.003263400769761354	0.017071578598697495	1.5228313188468125E12	1.522831318853E12	23.95001865645018	25455.0	1628.90625	53376.0	3871.0622710622706	2642.0	0.0	0.0	
0.09618630141001384	0.9277358746757697	-0.0698678598906618	0.36663964460198556	-0.18473282442748096	-126.0	-0.02391857506361317	25.0	0.06208651399491088	97.0	0.5180722891566265	1238.0	9.74698795180723	2004.0	-0.1927710843373494	2063.0	0.43636363636363634	-480.0	-0.84	-924.0	-0.1316326530612245	129.0	94.75660260554497	40040.0	0.998843747316406	0.044600543448281495	-0.0033588703485040432	0.01762605914603469	1.522831318854625E12	1.52283131886E12	23.95001865645018	25455.0	1636.71875	53632.0	3875.457875457875	2645.0	0.0	0.0	
0.09928626236835145	0.9278883836451698	-0.06945398426493422	0.3663322147533036	-0.1787737010588524	-135.0	0.11425757202659444	25.0	0.0448165476483625	98.0	0.5060240963855422	1237.0	9.759036144578314	2005.0	-0.20481927710843376	2064.0	0.43727272727272726	-481.0	-0.8372727272727273	-921.0	-0.1306122448979592	128.0	94.76251642690976	40042.0	0.9987680328034465	0.046044367047581504	-0.003446497230462692	0.018178409445316228	1.5228313188624375E12	1.522831318876E12	23.95001865645018	25455.0	1644.53125	53888.0	3872.527472527472	2643.0	0.0	0.0	
0.10237299272377907	0.9280684427984185	-0.06914476944107976	0.3659343743634288	-0.3258587786259542	-129.0	0.019083969465648856	35.0	-0.09398854961832061	107.0	0.5060240963855422	1238.0	9.74698795180723	2005.0	-0.1566265060240964	2060.0	0.43272727272727274	-476.0	-0.8281818181818181	-911.0	-0.13367346938775512	131.0	94.76547333874858	40043.0	0.9986902572993192	0.04748383057062318	-0.0035377331730890196	0.018722720255249754	1.52283131887025E12	1.522831318878E12	23.95001865645018	25455.0	1652.34375	54144.0	3876.9230769230767	2646.0	0.0	0.0	
0.10547645918564022	0.9281780625215938	-0.06889966038340309	0.36570250348168265	-0.19384686560259085	-134.0	0.0948415452232247	27.0	0.29053897756187835	82.0	0.5542168674698795	1237.0	9.759036144578314	2001.0	-0.13253012048192772	2058.0	0.4390909090909091	-483.0	-0.8290909090909091	-912.0	-0.1346938775510204	132.0	94.76547333874858	40043.0	0.998609661862565	0.0489277797601222	-0.0036319619531063147	0.0192775635091686	1.5228313188780625E12	1.522831318889E12	23.95001865645018	25455.0	1660.15625	54400.0	3863.7362637362635	2637.0	0.0	0.0	
0.10857499834151185	0.9283690655223776	-0.06867666796230747	0.3652593509531369	-0.11180960933991921	-127.0	-0.014818140996856731	22.0	-0.0996856757970364	107.0	0.5421686746987953	1237.0	9.759036144578314	2002.0	-0.14457831325301207	2059.0	0.43636363636363634	-480.0	-0.8318181818181818	-915.0	-0.1326530612244898	130.0	94.75955951584189	40041.0	0.9985267955809407	0.05037408318104944	-0.0037264535334166626	0.019819278356949882	1.522831318885875E12	1.522831318892E12	23.95001865645018	25455.0	1667.96875	54656.0	3878.388278388278	2647.0	0.0	0.0	
0.11166383208481191	0.9285677579291594	-0.06838629168502243	0.36480848954484396	-0.21548527808069803	-132.0	0.061941112322791814	29.0	-0.17317339149400215	112.0	0.5421686746987953	1238.0	9.74698795180723	2002.0	-0.1927710843373494	2063.0	0.4390909090909091	-483.0	-0.83	-913.0	-0.12959183673469388	127.0	94.75955951584189	40041.0	0.9984418034065169	0.051816786734324966	-0.003816154353341748	0.0203573767667459	1.5228313188936875E12	1.522831318906E12	23.95001865645018	25455.0	1675.78125	54912.0	3875.457875457875	2645.0	0.0	0.0	
0.11474593689953072	0.928692959220161	-0.06815086919369935	0.3645337385250708	-0.39270568278201856	-133.0	0.0754877014419001	41.0	0.04537743850720959	98.0	0.5542168674698795	1237.0	9.759036144578314	2001.0	-0.1566265060240964	2060.0	0.4309090909090909	-474.0	-0.83	-913.0	-0.1306122448979592	128.0	94.75955951584189	40041.0	0.9983546226548139	0.05325264571380176	-0.003907872947919439	0.020902910736724168	1.5228313189015E12	1.522831318907E12	23.95001865645018	25455.0	1683.59375	55168.0	3871.0622710622706	2642.0	0.0	0.0	
0.11784389224722776	0.9288712739108446	-0.06788263906019501	0.36412924054170537	-0.10728285537445839	-132.0	0.058180317722302394	23.0	-0.0016505054672994249	101.0	0.5421686746987953	1237.0	9.759036144578314	2002.0	-0.08433734939759037	2054.0	0.43636363636363634	-480.0	-0.8272727272727273	-910.0	-0.13367346938775512	131.0	94.76547333874858	40043.0	0.9982646042979537	0.0546992395680973	-0.003997463201585327	0.0214427909674509	1.5228313189093125E12	1.522831318914E12	23.95001865645018	25455.0	1691.40625	55424.0	3863.7362637362635	2637.0	0.0	0.0	
0.12093350810793024	0.929041009239273	-0.06750075439438774	0.36376702889054546	-0.22659702691844116	-132.0	0.056649256729610374	31.0	0.013660104459622293	100.0	0.49397590361445787	1236.0	9.771084337349398	2006.0	-0.08433734939759037	2054.0	0.44	-484.0	-0.8345454545454546	-918.0	-0.1326530612244898	130.0	94.76251642690976	40042.0	0.9981724427594473	0.0561418683645244	-0.0040790647883443415	0.02198241030075708	1.522831318917125E12	1.522831318928E12	23.95001865645018	25455.0	1699.21875	55680.0	3876.9230769230767	2646.0	0.0	0.0	
0.12402426463384018	0.9292551637033692	-0.06701622325551694	0.36330932626511825	-0.1291837933059308	-132.0	0.05519671168526127	25.0	-0.1393619103542767	110.0	0.45783132530120485	1235.0	9.783132530120483	2009.0	-0.14457831325301207	2059.0	0.44272727272727275	-487.0	-0.8318181818181818	-915.0	-0.12959183673469388	127.0	94.76251642690976	40042.0	0.9980778638064979	0.05758816834137886	-0.004153155879232856	0.022515149184177415	1.5228313189249375E12	1.52283131893E12	23.95001865645018	25455.0	1707.03125	55936.0	3872.527472527472	2643.0	0.0	0.0	
0.12710782194482004	0.9293824409294565	-0.0666393438832176	0.36305299384364575	-0.33969465648854963	-131.0	0.038549618320610775	39.0	0.13893129770992357	92.0	0.4819277108433735	1237.0	9.759036144578314	2007.0	-0.13253012048192772	2058.0	0.43272727272727274	-476.0	-0.8309090909090909	-914.0	-0.12959183673469388	127.0	94.76251642690976	40042.0	0.9979811298721067	0.059026134771503425	-0.004232340444480087	0.02305790813347142	1.52283131893275E12	1.522831318968E12	23.95001865645018	25455.0	1714.84375	56192.0	3875.457875457875	2645.0	0.0	0.0	
0.13018036521537119	0.9295424052606386	-0.06641030427605223	0.3626852468852485	-0.407745298827034	-132.0	0.05287655929994422	44.0	-0.09346490411469004	107.0	0.5542168674698795	1237.0	9.759036144578314	2001.0	-0.07228915662650603	2053.0	0.43636363636363634	-480.0	-0.8318181818181818	-915.0	-0.1316326530612245	129.0	94.76251642690976	40042.0	0.9978823818708067	0.06046137068529408	-0.00431960715448125	0.023590582882410612	1.5228313189405625E12	1.522831318969E12	23.95001865645018	25455.0	1722.65625	56448.0	3868.131868131868	2640.0	0.0	0.0	
0.13326701459206255	0.9297379340347085	-0.06608666285644862	0.36224291160694205	-0.15376226826608502	-132.0	0.05161759360232641	28.0	-0.12177390039985468	109.0	0.5180722891566265	1238.0	9.74698795180723	2004.0	0.0	2047.0	0.44	-484.0	-0.8281818181818181	-911.0	-0.1316326530612245	129.0	94.76251642690976	40042.0	0.9977808091401443	0.06190586507894712	-0.0044003281834001685	0.024119657799083805	1.522831318948375E12	1.52283131897E12	23.95001865645018	25455.0	1730.46875	56704.0	3875.457875457875	2645.0	0.0	0.0	
0.13635765990051132	0.9298661940233948	-0.06599428229883347	0.36193040203372867	-0.18072075270726073	-120.0	-0.13278892242144524	30.0	0.11006568436002122	94.0	0.5783132530120483	1237.0	9.759036144578314	1999.0	-0.04819277108433735	2051.0	0.43727272727272726	-481.0	-0.8390909090909091	-923.0	-0.1326530612244898	130.0	94.76547333874858	40043.0	0.9976767237331654	0.0633480851153492	-0.0044959279507775125	0.024656878657627977	1.5228313189561875E12	1.522831318971E12	23.95001865645018	25455.0	1738.28125	56960.0	3876.9230769230767	2646.0	0.0	0.0	
0.13944954121653017	0.9300904930944788	-0.06567634854784557	0.36141152706673696	0.00659264399722412	-126.0	-0.03816793893129771	18.0	-0.24358084663428173	117.0	0.49397590361445787	1237.0	9.759036144578314	2006.0	-0.060240963855421686	2052.0	0.43454545454545457	-478.0	-0.8309090909090909	-914.0	-0.13367346938775512	131.0	94.75955951584189	40041.0	0.997570212797514	0.06479781358235674	-0.004575558853218909	0.025178922837357103	1.522831318964E12	1.522831318972E12	23.95001865645018	25455.0	1746.09375	57216.0	3873.9926739926736	2644.0	0.0	0.0	
0.14253516298446833	0.9302231427885592	-0.06542789195697621	0.36111507248330427	-0.2530958439355386	-121.0	-0.11365564037319781	35.0	0.2045801526717558	88.0	0.5060240963855422	1236.0	9.771084337349398	2005.0	-0.060240963855421686	2052.0	0.43636363636363634	-480.0	-0.8272727272727273	-910.0	-0.1326530612244898	130.0	94.75955951584189	40041.0	0.997461540604391	0.06623864862241043	-0.0046589414368378825	0.0257140177428534	1.5228313189718125E12	1.522831318983E12	23.95001865645018	25455.0	1753.90625	57472.0	3866.6666666666665	2639.0	0.0	0.0	
0.14560200921802954	0.9304260728781721	-0.06508855797568763	0.3606532996232037	-0.3391968138068371	-125.0	-0.05011616329239979	41.0	-0.273149684699635	119.0	0.4819277108433735	1235.0	9.783132530120483	2007.0	-0.07228915662650603	2053.0	0.43727272727272726	-481.0	-0.8318181818181818	-915.0	-0.1306122448979592	128.0	94.75955951584189	40041.0	0.9973511770678102	0.06767613540371409	-0.004734327843123442	0.026232736001898432	1.522831318979625E12	1.522831318987E12	23.95001865645018	25455.0	1761.71875	57728.0	3878.388278388278	2647.0	0.0	0.0	
0.1486763560679689	0.9306038733285521	-0.0646202982522365	0.3602785699978766	-0.2709111580315088	-131.0	0.04255319148936175	37.0	-0.06886470683774576	106.0	0.43373493975903615	1238.0	9.74698795180723	2011.0	-0.08433734939759037	2054.0	0.43636363636363634	-480.0	-0.8318181818181818	-915.0	-0.1285714285714286	126.0	94.75955951584189	40041.0	0.9972381898462787	0.06911569789435983	-0.0047993320679723585	0.026757791919262603	1.5228313189874375E12	1.522831318998E12	23.95001865645018	25455.0	1769.53125	57984.0	3879.8534798534797	2648.0	0.0	0.0	
0.1517644092054115	0.9308074629868678	-0.06415251890277969	0.35983596424813535	-0.02099236641221374	-134.0	0.08746819338422378	21.0	-0.09796437659033086	108.0	0.43373493975903615	1236.0	9.771084337349398	2011.0	-0.07228915662650603	2053.0	0.43363636363636365	-477.0	-0.8318181818181818	-915.0	-0.13367346938775512	131.0	94.75955951584189	40041.0	0.9971223267396415	0.07056395767245445	-0.004863364131085557	0.02727894947119745	1.52283131899525E12	1.522831319001E12	23.95001865645018	25455.0	1777.34375	58240.0	3876.9230769230767	2646.0	0.0	0.0	
0.15484039178412734	0.9309930442929061	-0.06379419721678312	0.3594193259685149	-0.20377005764137715	-125.0	-0.0517214519395544	33.0	-0.09596510359869147	108.0	0.45783132530120485	1236.0	9.771084337349398	2009.0	-0.08433734939759037	2054.0	0.43272727272727274	-476.0	-0.8263636363636364	-909.0	-0.1316326530612245	129.0	94.76843025135835	40044.0	0.9970045532798885	0.07200568121396785	-0.004934026796710926	0.02779852499057525	1.5228313190030625E12	1.522831319027E12	23.95001865645018	25455.0	1785.15625	58496.0	3868.131868131868	2640.0	0.0	0.0	
0.15793624115531577	0.9311747204577165	-0.06347840564598087	0.35900436208649217	0.07511450381679376	-119.0	-0.14229007633587776	15.0	0.028091603053435166	100.0	0.46987951807228917	1237.0	9.759036144578314	2008.0	-0.07228915662650603	2053.0	0.4381818181818182	-482.0	-0.8281818181818181	-911.0	-0.1306122448979592	128.0	94.76547333874858	40043.0	0.9968836379314427	0.07345671644974641	-0.0050075621059888255	0.028320444112837184	1.522831319010875E12	1.522831319027E12	23.95001865645018	25455.0	1792.96875	58752.0	3881.3186813186812	2649.0	0.0	0.0	
0.1610216188440242	0.9313595521178376	-0.0631051507194971	0.35859046924244115	-0.04849573417153109	-126.0	-0.03262984583146218	23.0	-0.002993563837748938	102.0	0.45783132530120485	1237.0	9.759036144578314	2009.0	-0.10843373493975904	2056.0	0.44181818181818183	-486.0	-0.8345454545454546	-918.0	-0.1326530612244898	130.0	94.76547333874858	40043.0	0.9967607550798874	0.07490352950697964	-0.005075159757809843	0.02883922941762508	1.5228313190186875E12	1.522831319032E12	23.95001865645018	25455.0	1800.78125	59008.0	3876.9230769230767	2646.0	0.0	0.0	
0.1641114208685281	0.9315054424727904	-0.06285888655334879	0.3582546175903812	-0.01702877275396356	-121.0	-0.10833822665883724	21.0	0.11920140927774514	94.0	0.5060240963855422	1237.0	9.759036144578314	2005.0	-0.13253012048192772	2058.0	0.4318181818181818	-475.0	-0.8363636363636363	-920.0	-0.1306122448979592	128.0	94.76843025135835	40044.0	0.9966353187340375	0.07634959475735353	-0.00515214436375859	0.029363859432066864	1.5228313190265E12	1.522831319032E12	23.95001865645018	25455.0	1808.59375	59264.0	3872.527472527472	2643.0	0.0	0.0	
0.16719635008380943	0.9316741085177778	-0.06267416553995103	0.3578481584296673	-0.0014402995823131783	-117.0	-0.16736281146478468	20.0	-0.08152095635892269	107.0	0.5421686746987953	1237.0	9.759036144578314	2002.0	-0.10843373493975904	2056.0	0.43272727272727274	-476.0	-0.8309090909090909	-914.0	-0.12755102040816327	125.0	94.76251642690976	40042.0	0.9965077071448517	0.07779556687502351	-0.005233345213764215	0.029880620364677632	1.5228313190343125E12	1.522831319045E12	23.95001865645018	25455.0	1816.40625	59520.0	3868.131868131868	2640.0	0.0	0.0	
0.17026909600360507	0.9318949962693782	-0.0623743336046917	0.357325003932618	-0.0777495052304213	-129.0	0.018942606728866374	25.0	-0.2784845914616908	120.0	0.5060240963855422	1237.0	9.759036144578314	2005.0	-0.13253012048192772	2058.0	0.4381818181818182	-482.0	-0.83	-913.0	-0.13673469387755102	134.0	94.76251642690976	40042.0	0.996378242669843	0.07924065701232151	-0.005303798384290032	0.030383968356845044	1.522831319042125E12	1.522831319052E12	23.95001865645018	25455.0	1824.21875	59776.0	3873.9926739926736	2644.0	0.0	0.0	
0.17335347660499778	0.9320580285563309	-0.062031859417283654	0.3569592131054972	-0.015267175572519083	-130.0	0.03386537126995143	21.0	0.09299097848716173	96.0	0.49397590361445787	1237.0	9.759036144578314	2006.0	-0.16867469879518074	2061.0	0.44	-484.0	-0.8327272727272728	-916.0	-0.12959183673469388	127.0	94.75955951584189	40041.0	0.9962459227222323	0.08068663001486656	-0.00536998935322629	0.030901333474754204	1.5228313190499375E12	1.522831319059E12	23.95001865645018	25455.0	1832.03125	60032.0	3876.9230769230767	2646.0	0.0	0.0	
0.17642890677417658	0.9321988340346904	-0.06175561214817216	0.3566392830193376	-0.15239912758996735	-126.0	-0.027808069792802585	30.0	0.12186477644492917	94.0	0.5060240963855422	1237.0	9.759036144578314	2005.0	-0.16867469879518074	2061.0	0.43363636363636365	-477.0	-0.8390909090909091	-923.0	-0.1306122448979592	128.0	94.76251642690976	40042.0	0.9961116276295834	0.082126798230215	-0.0054406747930856245	0.031419951804410554	1.52283131905775E12	1.522831319075E12	23.95001865645018	25455.0	1839.84375	60288.0	3838.8278388278386	2620.0	0.0	0.0	
0.17949337594911208	0.932339436643715	-0.06150130581414271	0.3563155403038597	-0.27186286326503284	-135.0	0.11008437123342717	38.0	0.05865809562073115	98.0	0.5542168674698795	1236.0	9.771084337349398	2001.0	-0.12048192771084337	2057.0	0.4318181818181818	-475.0	-0.8327272727272728	-916.0	-0.1306122448979592	128.0	94.76251642690976	40042.0	0.9959754683754516	0.08356209630287652	-0.005512131995289547	0.03193522908380486	1.5228313190655625E12	1.522831319082E12	23.95001865645018	25455.0	1847.65625	60544.0	3866.6666666666665	2639.0	0.0	0.0	
0.18257793677609963	0.9324368822609101	-0.061487370222464165	0.35606286509918594	-0.09923664122137404	-122.0	-0.09028691760989725	27.0	0.45459331403000797	72.0	0.6626506024096386	1236.0	9.771084337349398	1992.0	-0.060240963855421686	2052.0	0.43454545454545457	-478.0	-0.8245454545454546	-907.0	-0.1346938775510204	132.0	94.75955951584189	40041.0	0.9958360550779005	0.08500302157461315	-0.0056053255260701505	0.032459483295594976	1.522831319073375E12	1.522831319118E12	23.95001865645018	25455.0	1855.46875	60800.0	3869.5970695970695	2641.0	0.0	0.0	
0.18564503109853822	0.9325765563288402	-0.06143160819393692	0.3557065139978723	-0.20442489325915386	-126.0	-0.02768792858067017	34.0	0.08047612886531244	96.0	0.6626506024096386	1238.0	9.74698795180723	1992.0	-0.060240963855421686	2052.0	0.4381818181818182	-482.0	-0.8290909090909091	-912.0	-0.13367346938775512	131.0	94.75955951584189	40041.0	0.9956950825732567	0.08643984911090327	-0.005694051503747649	0.032970180505909656	1.5228313190811875E12	1.522831319119E12	23.95001865645018	25455.0	1863.28125	61056.0	3878.388278388278	2647.0	0.0	0.0	
0.18870323927080498	0.9327238897661463	-0.06128278458107903	0.3553456989657868	-0.26208651399491095	-133.0	0.07964376590330792	38.0	-0.05826972010178111	105.0	0.6265060240963856	1237.0	9.759036144578314	1995.0	-0.024096385542168676	2049.0	0.43454545454545457	-478.0	-0.8390909090909091	-923.0	-0.1326530612244898	130.0	94.75955951584189	40041.0	0.9955521870257864	0.0878734958171101	-0.005773554825422639	0.033477719541982594	1.522831319089E12	1.522831319121E12	23.95001865645018	25455.0	1871.09375	61312.0	3872.527472527472	2643.0	0.0	0.0	
0.19175366925429638	0.9329071146330833	-0.06109036477769047	0.3548975666276937	-0.2883243649105244	-126.0	-0.028532098610937327	40.0	-0.2557877612313852	118.0	0.5662650602409639	1237.0	9.759036144578314	2000.0	-0.024096385542168676	2049.0	0.43272727272727274	-476.0	-0.8345454545454546	-918.0	-0.13571428571428573	133.0	94.76251642690976	40042.0	0.9954073360297426	0.08930721015894906	-0.005848181410894114	0.03397434864690128	1.5228313190968125E12	1.522831319122E12	23.95001865645018	25455.0	1878.90625	61568.0	3868.131868131868	2640.0	0.0	0.0	
0.19480812225784933	0.9330919281926368	-0.06072707568846912	0.3544738013169416	-0.20733809406550113	-141.0	0.20093573011573496	35.0	-0.19059344988918986	114.0	0.5180722891566265	1236.0	9.771084337349398	2004.0	-0.012048192771084338	2048.0	0.43454545454545457	-478.0	-0.8272727272727273	-910.0	-0.1306122448979592	128.0	94.75955951584189	40041.0	0.9952599738196379	0.09074329561933282	-0.0059057149834852015	0.03447261729561461	1.522831319104625E12	1.522831319123E12	23.95001865645018	25455.0	1886.71875	61824.0	3869.5970695970695	2641.0	0.0	0.0	
0.19787984978631906	0.9333004871671321	-0.06036644597951305	0.35398600657846097	0.07076214709802486	-138.0	0.15194474736459485	17.0	-0.14176663031624873	111.0	0.5060240963855422	1238.0	9.74698795180723	2005.0	-0.07228915662650603	2053.0	0.4390909090909091	-483.0	-0.8218181818181818	-904.0	-0.13571428571428573	133.0	94.75955951584189	40041.0	0.9951094371055165	0.09219009833195489	-0.005962911910283143	0.0349662356372052	1.5228313191124375E12	1.522831319124E12	23.95001865645018	25455.0	1894.53125	62080.0	3863.7362637362635	2637.0	0.0	0.0	
0.20093225705269568	0.9334925636856322	-0.05999903096902555	0.3535417228933565	-0.17461832061068702	-135.0	0.10376908396946564	33.0	-0.24642175572519082	118.0	0.4819277108433735	1237.0	9.759036144578314	2007.0	-0.04819277108433735	2051.0	0.43636363636363634	-480.0	-0.8381818181818181	-922.0	-0.1326530612244898	130.0	94.76547333874858	40043.0	0.9949575219811665	0.09362669559502079	-0.006017735145477777	0.035459246872611115	1.52283131912025E12	1.52283131913E12	23.95001865645018	25455.0	1902.34375	62336.0	3868.131868131868	2640.0	0.0	0.0	
0.20399250495008742	0.9336793147981974	-0.059520871792243954	0.3531291590042459	-0.06506165590135049	-153.0	0.37698179682912486	26.0	-0.08995889606576635	108.0	0.45783132530120485	1236.0	9.771084337349398	2009.0	0.0	2047.0	0.4318181818181818	-475.0	-0.8290909090909091	-912.0	-0.1346938775510204	132.0	94.76843025135835	40044.0	0.9948028901482636	0.0950667571986252	-0.0060603851635577435	0.035955432970117	1.5228313191280625E12	1.522831319139E12	23.95001865645018	25455.0	1910.15625	62592.0	3862.271062271062	2636.0	0.0	0.0	
0.2070481871568217	0.9339002626977418	-0.05899985236811014	0.3526319848704052	-0.06407587323617867	-142.0	0.20333102012491316	26.0	-0.21073328706916483	116.0	0.39759036144578314	1236.0	9.771084337349398	2014.0	0.012048192771084338	2046.0	0.44545454545454544	-490.0	-0.8209090909090909	-903.0	-0.1346938775510204	132.0	94.76843025135835	40044.0	0.9946461651145806	0.09650857817215297	-0.006097002101664587	0.03644073445226289	1.522831319135875E12	1.52283131914E12	23.95001865645018	25455.0	1917.96875	62848.0	3869.5970695970695	2641.0	0.0	0.0	
0.2101199192255297	0.9340933783912684	-0.058534682798706515	0.3521977446765328	0.13535376552352746	-134.0	0.07815882419961265	13.0	-0.03964908283012413	105.0	0.39759036144578314	1237.0	9.759036144578314	2014.0	0.024096385542168676	2045.0	0.4381818181818182	-482.0	-0.8290909090909091	-912.0	-0.1326530612244898	130.0	94.75955951584189	40041.0	0.9944862767635657	0.09795538165236421	-0.006138344758767399	0.03693384975740686	1.5228313191436875E12	1.522831319156E12	23.95001865645018	25455.0	1925.78125	63104.0	3876.9230769230767	2646.0	0.0	0.0	
0.21319607310388985	0.9342555895501168	-0.0581646233779142	0.3518286088163632	0.14863044454422977	-130.0	0.015940727436012395	12.0	0.14414009878760659	93.0	0.44578313253012053	1237.0	9.759036144578314	2010.0	-0.012048192771084338	2048.0	0.43727272727272726	-481.0	-0.8372727272727273	-921.0	-0.1326530612244898	130.0	94.76251642690976	40042.0	0.9943238073051764	0.09940130976259329	-0.006188498961399553	0.03743325158497384	1.5228313191515E12	1.522831319157E12	23.95001865645018	25455.0	1933.59375	63360.0	3876.9230769230767	2646.0	0.0	0.0	
0.21627618145018893	0.9344105553941481	-0.057795593382222954	0.35147771387897847	0.20754508242062172	-137.0	0.1225799314083416	8.0	0.23365416528377028	87.0	0.4819277108433735	1237.0	9.759036144578314	2007.0	0.024096385542168676	2045.0	0.4409090909090909	-485.0	-0.83	-913.0	-0.1306122448979592	128.0	94.76251642690976	40042.0	0.9941587721987514	0.1008485536774453	-0.0062377313354174645	0.037934095339492685	1.5228313191593125E12	1.522831319163E12	23.95001865645018	25455.0	1941.40625	63616.0	3859.340659340659	2634.0	0.0	0.0	
0.21934750946226478	0.9345782747185193	-0.05751118859042845	0.3510782129541384	0.15877862595419845	-128.0	-0.016575790621592198	11.0	0.03184296619411128	100.0	0.5060240963855422	1237.0	9.759036144578314	2005.0	0.0	2047.0	0.43363636363636365	-477.0	-0.8290909090909091	-912.0	-0.1316326530612245	129.0	94.75955951584189	40041.0	0.993991859710991	0.1022933505990779	-0.006294830873981379	0.038426922278106505	1.522831319167125E12	1.522831319177E12	23.95001865645018	25455.0	1949.21875	63872.0	3872.527472527472	2643.0	0.0	0.0	
0.22243045239886647	0.9347498210356474	-0.05722213096350363	0.3506685041486273	0.324481238576497	-119.0	-0.1537469089345231	0.0	0.13826470272013752	93.0	0.46987951807228917	1235.0	9.783132530120483	2008.0	-0.012048192771084338	2048.0	0.43727272727272726	-481.0	-0.83	-913.0	-0.13367346938775512	131.0	94.75955951584189	40041.0	0.9938219585976985	0.10374423802130536	-0.006350861204965811	0.03891933000924632	1.5228313191749375E12	1.52283131918E12	23.95001865645018	25455.0	1957.03125	64128.0	3876.9230769230767	2646.0	0.0	0.0	
0.22551730346536622	0.9349336413961896	-0.05694565166298525	0.35022318447292555	0.4268447837150127	-122.0	-0.10581000848176401	-7.0	0.10581000848176422	95.0	0.5060240963855422	1236.0	9.771084337349398	2005.0	-0.03614457831325302	2050.0	0.44181818181818183	-486.0	-0.8190909090909091	-901.0	-0.1326530612244898	130.0	94.75955951584189	40041.0	0.9936494761612278	0.1051986009024216	-0.006407516659125238	0.03940706310997938	1.52283131918275E12	1.522831319192E12	23.95001865645018	25455.0	1964.84375	64384.0	3875.457875457875	2645.0	0.0	0.0	
0.22858888447231326	0.9350971255501105	-0.05666176454608762	0.3498325459794459	0.22252431245425078	-123.0	-0.08909338073826212	6.0	0.07382620516574304	97.0	0.4819277108433735	1235.0	9.783132530120483	2007.0	-0.060240963855421686	2052.0	0.43272727272727274	-476.0	-0.8390909090909091	-923.0	-0.1326530612244898	130.0	94.75068878726401	40038.0	0.9934754974625783	0.1066438646837534	-0.00646203414157736	0.03989691944936443	1.5228313191905625E12	1.522831319195E12	23.95001865645018	25455.0	1972.65625	64640.0	3862.271062271062	2636.0	0.0	0.0	
0.23167095665036003	0.9352672641828291	-0.0563855835037727	0.3494221093761786	0.4027233340210439	-122.0	-0.10315659170620982	-6.0	0.10336290488962249	95.0	0.49397590361445787	1236.0	9.771084337349398	2006.0	-0.060240963855421686	2052.0	0.43363636363636365	-477.0	-0.83	-913.0	-0.1316326530612245	129.0	94.75660260554497	40040.0	0.9932985692476337	0.1080950180236008	-0.006516854484837489	0.04038502218279189	1.522831319198375E12	1.522831319209E12	23.95001865645018	25455.0	1980.46875	64896.0	3871.0622710622706	2642.0	0.0	0.0	
0.23474104226663942	0.9354597894171469	-0.056057489369138375	0.3489592243647836	0.3362849872773537	-121.0	-0.1170483460559795	-2.0	-0.14229007633587776	111.0	0.45783132530120485	1235.0	9.783132530120483	2009.0	-0.0963855421686747	2055.0	0.43636363636363634	-480.0	-0.8318181818181818	-915.0	-0.1285714285714286	126.0	94.75660260554497	40040.0	0.993119983993816	0.10954348925862145	-0.006564400794180129	0.04086355338663781	1.5228313192061875E12	1.52283131921E12	23.95001865645018	25455.0	1988.28125	65152.0	3865.201465201465	2638.0	0.0	0.0	
0.23780220140643005	0.9356463534849842	-0.05581504275645282	0.34849760718307593	0.17918842908798713	-108.0	-0.3139815186822018	8.0	-0.04881478505423863	105.0	0.4819277108433735	1235.0	9.783132530120483	2007.0	-0.08433734939759037	2054.0	0.44272727272727275	-487.0	-0.8236363636363636	-906.0	-0.1316326530612245	129.0	94.753645696019	40039.0	0.9929395880400967	0.11098743569846012	-0.006620843918073397	0.041339182934056716	1.522831319214E12	1.522831319218E12	23.95001865645018	25455.0	1996.09375	65408.0	3875.457875457875	2645.0	0.0	0.0	
0.24086205244172365	0.9357997792650264	-0.05551409765420727	0.34813353485289267	0.11579260434222272	-118.0	-0.1572320808962031	12.0	0.16555963120848624	91.0	0.44578313253012053	1237.0	9.759036144578314	2010.0	0.0	2047.0	0.4354545454545454	-479.0	-0.8381818181818181	-922.0	-0.1326530612244898	130.0	94.75660260554497	40040.0	0.9927569445313839	0.11242710031264574	-0.006669470504296824	0.041824805596601275	1.5228313192218125E12	1.522831319232E12	23.95001865645018	25455.0	2003.90625	128.0	3866.6666666666665	2639.0	0.0	0.0	
0.24392974578692597	0.9359565483800799	-0.055281515583684104	0.3477488944327491	0.2517126639264044	-110.0	-0.2773536895674299	3.0	0.17870424740653745	90.0	0.4819277108433735	1236.0	9.771084337349398	2007.0	-0.012048192771084338	2048.0	0.43454545454545457	-478.0	-0.8309090909090909	-914.0	-0.1326530612244898	130.0	94.75660260554497	40040.0	0.9925715002539147	0.11387101734635365	-0.006725699425745252	0.04230807558178056	1.522831319229625E12	1.522831319234E12	23.95001865645018	25455.0	2011.71875	384.0	3869.5970695970695	2641.0	0.0	0.0	
0.24701677600898597	0.9361371230639587	-0.05502154993687933	0.3473037803768761	0.6149386414146294	-120.0	-0.12117112764518313	-21.0	0.11537346603536566	94.0	0.5060240963855422	1236.0	9.771084337349398	2005.0	-0.07228915662650603	2053.0	0.4354545454545454	-479.0	-0.8254545454545454	-908.0	-0.1346938775510204	132.0	94.75660260554497	40040.0	0.9923825297149854	0.11532705835783187	-0.006778359007642204	0.04278595769851024	1.5228313192374375E12	1.522831319269E12	23.95001865645018	25455.0	2019.53125	640.0	3878.388278388278	2647.0	0.0	0.0	
0.250095562169755	0.9363267810979577	-0.05472800232981803	0.3468385860306176	0.5614503816793893	-119.0	-0.1349236641221375	-18.0	-0.008206106870228921	102.0	0.46987951807228917	1236.0	9.771084337349398	2008.0	-0.10843373493975904	2056.0	0.4354545454545454	-479.0	-0.8327272727272728	-916.0	-0.1346938775510204	132.0	94.75660260554497	40040.0	0.9921917090027038	0.11678068130466532	-0.00682579365189686	0.04325845121284083	1.52283131924525E12	1.522831319272E12	23.95001865645018	25455.0	2027.34375	896.0	3873.9926739926736	2644.0	0.0	0.0	
0.25315707888763134	0.9364938730012575	-0.05441852615365147	0.3464359245840137	0.2797097351804731	-116.0	-0.17905946659127314	0.0	0.09876543209876548	95.0	0.44578313253012053	1236.0	9.771084337349398	2010.0	-0.08433734939759037	2054.0	0.44	-484.0	-0.8372727272727273	-921.0	-0.1306122448979592	128.0	94.75660260554497	40040.0	0.9919996271545092	0.11822373624456198	-0.006869838306778169	0.04373434846124872	1.5228313192530625E12	1.522831319274E12	23.95001865645018	25455.0	2035.15625	1152.0	3871.0622710622706	2642.0	0.0	0.0	
0.25621587824683106	0.9366566098250388	-0.054137289643188695	0.3460398086075394	0.24576428970396574	-109.0	-0.2837460435673058	2.0	0.14336250232731335	92.0	0.43373493975903615	1237.0	9.759036144578314	2011.0	-0.03614457831325302	2050.0	0.43454545454545457	-478.0	-0.8327272727272728	-916.0	-0.1326530612244898	130.0	94.75660260554497	40040.0	0.9918053944150785	0.11966520303337848	-0.0069164619016985375	0.0442092902780962	1.522831319260875E12	1.522831319275E12	23.95001865645018	25455.0	2042.96875	1408.0	3875.457875457875	2645.0	0.0	0.0	
0.25929431410817155	0.9368216161279425	-0.05381094187734857	0.34564380811710166	0.5786811367607835	-122.0	-0.08185413409362631	-20.0	0.17216959440816698	90.0	0.45783132530120485	1238.0	9.74698795180723	2009.0	-0.060240963855421686	2052.0	0.43363636363636365	-477.0	-0.8281818181818181	-911.0	-0.12755102040816327	125.0	94.75955951584189	40041.0	0.9916075724828046	0.12111629776614956	-0.006956908281462874	0.04468630704526727	1.5228313192686875E12	1.522831319287E12	23.95001865645018	25455.0	2050.78125	1664.0	3878.388278388278	2647.0	0.0	0.0	
0.26237081972295884	0.9370041817503008	-0.053490190784936144	0.3451984398461673	0.6328607778989458	-119.0	-0.12668120683387862	-24.0	0.017448200654307463	100.0	0.44578313253012053	1236.0	9.771084337349398	2010.0	-0.12048192771084337	2057.0	0.43454545454545457	-478.0	-0.8381818181818181	-922.0	-0.1316326530612245	129.0	94.75955951584189	40041.0	0.9914075274901422	0.12256900963709168	-0.006997022892215717	0.04515522099504261	1.5228313192765E12	1.522831319289E12	23.95001865645018	25455.0	2058.59375	1920.0	3884.249084249084	2651.0	0.0	0.0	
0.26543353996444263	0.9371534426945572	-0.05327248420207886	0.3448267206477505	0.35060619667714416	-107.0	-0.30839694656488553	-6.0	0.23098338572070043	86.0	0.4819277108433735	1236.0	9.771084337349398	2007.0	-0.1566265060240964	2060.0	0.43	-473.0	-0.8390909090909091	-923.0	-0.1316326530612245	129.0	94.76547333874858	40043.0	0.991206048723521	0.12401117827044521	-0.007049414998997843	0.04563006011449778	1.5228313192843125E12	1.522831319292E12	23.95001865645018	25455.0	2066.40625	2176.0	3868.131868131868	2640.0	0.0	0.0	
0.26848539375281794	0.9373113760798003	-0.05299508575259242	0.34443998774454454	0.2549263270015976	-123.0	-0.06053612639801162	0.0	0.1519616545357713	91.0	0.5060240963855422	1237.0	9.759036144578314	2005.0	-0.14457831325301207	2059.0	0.4409090909090909	-485.0	-0.8327272727272728	-916.0	-0.12959183673469388	127.0	94.75660260554497	40040.0	0.9910029727128192	0.12544962317422112	-0.007092854847824062	0.04609979967319598	1.522831319292125E12	1.522831319301E12	23.95001865645018	25455.0	2074.21875	2432.0	3866.6666666666665	2639.0	0.0	0.0	
0.2715457345473722	0.9374717797413953	-0.052636704060912864	0.34405819213338135	0.4046678950601035	-132.0	0.07756427129946476	-10.0	0.22655084671404757	86.0	0.44578313253012053	1236.0	9.771084337349398	2010.0	-0.1566265060240964	2060.0	0.43272727272727274	-476.0	-0.8309090909090909	-914.0	-0.1316326530612245	129.0	94.75660260554497	40040.0	0.9907970148237	0.1268925295386073	-0.0071246992914355215	0.0465703771054615	1.5228313192999375E12	1.522831319306E12	23.95001865645018	25455.0	2082.03125	2688.0	3879.8534798534797	2648.0	0.0	0.0	
0.2746033378239536	0.9376393336933744	-0.05229081575922321	0.3436541146243851	0.41533657182512157	-135.0	0.12248438584316458	-11.0	0.16290770298403887	90.0	0.4819277108433735	1236.0	9.771084337349398	2007.0	-0.18072289156626506	2062.0	0.4354545454545454	-479.0	-0.82	-902.0	-0.12959183673469388	127.0	94.76251642690976	40042.0	0.9905889244055557	0.1283353325170375	-0.007157079472779028	0.04703617210409294	1.52283131930775E12	1.52283131932E12	23.95001865645018	25455.0	2089.84375	2944.0	3873.9926739926736	2644.0	0.0	0.0	
0.2776419309270915	0.9377687612206873	-0.05204383660548591	0.34333830189770836	0.04425765503044853	-117.0	-0.15370100351659655	13.0	0.3900849129427909	75.0	0.4819277108433735	1237.0	9.759036144578314	2007.0	-0.1927710843373494	2063.0	0.43363636363636365	-477.0	-0.8409090909090909	-925.0	-0.1316326530612245	129.0	94.76251642690976	40042.0	0.9903798340653508	0.12976423909746473	-0.007201592904452018	0.047509615740214436	1.5228313193155625E12	1.522831319322E12	23.95001865645018	25455.0	2097.65625	3200.0	3866.6666666666665	2639.0	0.0	0.0	
0.28068651651105847	0.9379073451989544	-0.051743672966366824	0.3430049622524583	0.16590330788804064	-131.0	0.06174724342663284	5.0	0.4468193384223918	71.0	0.49397590361445787	1237.0	9.759036144578314	2006.0	-0.14457831325301207	2059.0	0.4381818181818182	-482.0	-0.8236363636363636	-906.0	-0.1326530612244898	130.0	94.76251642690976	40042.0	0.9901680385507656	0.13119729901359697	-0.007238060528025995	0.04798056527240158	1.522831319323375E12	1.522831319336E12	23.95001865645018	25455.0	2105.46875	3456.0	3871.0622710622706	2642.0	0.0	0.0	
0.2837325715073082	0.9380468039517139	-0.05143577369656785	0.34266974593653343	0.22514889690462211	-127.0	0.0	1.0	0.4266420602298465	72.0	0.45783132530120485	1236.0	9.771084337349398	2009.0	-0.14457831325301207	2059.0	0.4318181818181818	-475.0	-0.8309090909090909	-914.0	-0.13367346938775512	131.0	94.76547333874858	40043.0	0.9899538445651312	0.13263127862821564	-0.0072725501583378325	0.04845038260277224	1.5228313193311875E12	1.522831319337E12	23.95001865645018	25455.0	2113.28125	3712.0	3878.388278388278	2647.0	0.0	0.0	
0.2867651344165507	0.9381951021038895	-0.05110566418967611	0.34231295838167297	0.11583139727846006	-132.0	0.07633587786259542	8.0	0.23879853966146705	84.0	0.45783132530120485	1237.0	9.759036144578314	2009.0	-0.16867469879518074	2061.0	0.43272727272727274	-476.0	-0.8345454545454546	-918.0	-0.1316326530612245	129.0	94.76251642690976	40042.0	0.9897383182470705	0.13406037010285063	-0.007302579431779338	0.04891370866117266	1.522831319339E12	1.52283131934E12	23.95001865645018	25455.0	2121.09375	3968.0	3872.527472527472	2643.0	0.0	0.0	
0.2897960047553452	0.9383318703650619	-0.05086810625506393	0.3419732984068052	0.08405154723795459	-125.0	-0.03135516703603372	10.0	0.29729951571862423	80.0	0.5301204819277109	1236.0	9.771084337349398	2003.0	-0.1566265060240964	2060.0	0.43454545454545457	-478.0	-0.8363636363636363	-920.0	-0.1316326530612245	129.0	94.76251642690976	40042.0	0.9895206386094743	0.13548714786380975	-0.00734492225128246	0.04937803810147843	1.5228313193468125E12	1.522831319353E12	23.95001865645018	25455.0	2128.90625	4224.0	3866.6666666666665	2639.0	0.0	0.0	
0.29282367430602596	0.9384679038000809	-0.0506715333962254	0.3416290228308399	0.06789020626928703	-126.0	-0.01575442585674852	11.0	0.278869579340588	81.0	0.5903614457831325	1236.0	9.771084337349398	1998.0	-0.1566265060240964	2060.0	0.44272727272727275	-487.0	-0.8390909090909091	-923.0	-0.1316326530612245	129.0	94.75955951584189	40041.0	0.9893009199765181	0.1369124316018216	-0.007392434863438885	0.04984002120064884	1.522831319354625E12	1.522831319357E12	23.95001865645018	25455.0	2136.71875	4480.0	3868.131868131868	2640.0	0.0	0.0	
0.29584656221229344	0.9386126206620393	-0.0505052961553153	0.34125586206570063	0.06717557251908403	-116.0	-0.16826034552028937	11.0	0.13852952993169937	90.0	0.5783132530120483	1237.0	9.759036144578314	1999.0	-0.14457831325301207	2059.0	0.4318181818181818	-475.0	-0.8327272727272728	-916.0	-0.1316326530612245	129.0	94.76251642690976	40042.0	0.9890792865400562	0.13833686930932176	-0.007443693383047019	0.050295794614742095	1.5228313193624375E12	1.52283131937E12	23.95001865645018	25455.0	2144.53125	4736.0	3876.9230769230767	2646.0	0.0	0.0	
0.2988629382714727	0.9387607630639436	-0.0502783544618948	0.34088167566503197	0.0054071246819338056	-126.0	-0.013835877862595419	15.0	0.15235368956742987	89.0	0.5421686746987953	1237.0	9.759036144578314	2002.0	-0.16867469879518074	2061.0	0.43454545454545457	-478.0	-0.84	-924.0	-0.13571428571428573	133.0	94.76251642690976	40042.0	0.9888558783231544	0.13975891119815845	-0.0074852383620030525	0.05074908721457032	1.52283131937025E12	1.522831319374E12	23.95001865645018	25455.0	2152.34375	4992.0	3860.8058608058604	2635.0	0.0	0.0	
0.30188419181488424	0.9389128426796773	-0.05002532042203526	0.34049984018768786	0.11222161013614539	-125.0	-0.02896041551900517	8.0	0.16605020854647046	88.0	0.5180722891566265	1238.0	9.74698795180723	2004.0	-0.13253012048192772	2058.0	0.43454545454545457	-478.0	-0.8327272727272728	-916.0	-0.13367346938775512	131.0	94.75660260554497	40040.0	0.9886298541146168	0.1411839328197712	-0.007522286581569013	0.05120081905046658	1.5228313193780625E12	1.522831319403E12	23.95001865645018	25455.0	2160.15625	5248.0	3865.201465201465	2638.0	0.0	0.0	
0.3049068507444883	0.9390671897211444	-0.049767826897321676	0.34011171193468587	0.1874123695279639	-127.0	0.0018694500701043864	3.0	0.1032871163732668	92.0	0.5180722891566265	1236.0	9.771084337349398	2004.0	-0.14457831325301207	2059.0	0.4309090909090909	-474.0	-0.8390909090909091	-923.0	-0.13367346938775512	131.0	94.75660260554497	40040.0	0.9884014671466324	0.14261008306754974	-0.007557919183638019	0.05165057412521797	1.522831319385875E12	1.522831319405E12	23.95001865645018	25455.0	2167.96875	5504.0	3879.8534798534797	2648.0	0.0	0.0	
0.30791955937153925	0.9391958666397568	-0.04949476541000294	0.3397961039856355	-0.02822114272495945	-129.0	0.032384917881101136	17.0	0.36178579690030077	75.0	0.5060240963855422	1238.0	9.74698795180723	2005.0	-0.16867469879518074	2061.0	0.43272727272727274	-476.0	-0.8354545454545454	-919.0	-0.1285714285714286	126.0	94.75660260554497	40040.0	0.9881715855176827	0.14402781463692707	-0.007590134444985144	0.05210850262181236	1.5228313193936875E12	1.522831319407E12	23.95001865645018	25455.0	2175.78125	5760.0	3879.8534798534797	2648.0	0.0	0.0	
0.31092760851998197	0.9393434330824295	-0.04923038784080771	0.3394264038609255	-0.012671755725190895	-130.0	0.04732824427480907	16.0	0.22076335877862607	84.0	0.5180722891566265	1236.0	9.771084337349398	2004.0	-0.16867469879518074	2061.0	0.43636363636363634	-480.0	-0.8354545454545454	-919.0	-0.13571428571428573	133.0	94.75660260554497	40040.0	0.9879398223613501	0.14544636530646707	-0.007622750872464803	0.05255621638681793	1.5228313194015E12	1.522831319408E12	23.95001865645018	25455.0	2183.59375	6016.0	3871.0622710622706	2642.0	0.0	0.0	
0.31393177673318334	0.9394780457379803	-0.048942676987074184	0.3390952903619931	-0.058347819514775925	-141.0	0.21479857909455075	19.0	0.2796462852392109	80.0	0.5301204819277109	1236.0	9.771084337349398	2003.0	-0.14457831325301207	2059.0	0.43363636363636365	-477.0	-0.8390909090909091	-923.0	-0.1326530612244898	130.0	94.75660260554497	40040.0	0.9877061277365973	0.1468611998942143	-0.007650823029835154	0.05300809470424652	1.5228313194093125E12	1.522831319418E12	23.95001865645018	25455.0	2191.40625	6272.0	3865.201465201465	2638.0	0.0	0.0	
0.31693421356657464	0.9396022333576101	-0.04868164618132734	0.33878863675523213	-0.08831013321359073	-137.0	0.15162400838197881	21.0	0.35324053285436313	75.0	0.5421686746987953	1236.0	9.771084337349398	2002.0	-0.18072289156626506	2062.0	0.43	-473.0	-0.8390909090909091	-923.0	-0.12959183673469388	127.0	94.75660260554497	40040.0	0.9874703412040423	0.14827365421166683	-0.0076821928642623934	0.053462441226412645	1.522831319417125E12	1.522831319424E12	23.95001865645018	25455.0	2199.21875	6528.0	3869.5970695970695	2641.0	0.0	0.0	
0.3199265477174936	0.9397362115496807	-0.048446380899952776	0.33845058853538246	-0.17905580671459279	-134.0	0.1043504039131401	27.0	0.25820795968279836	81.0	0.5783132530120483	1236.0	9.771084337349398	1999.0	-0.14457831325301207	2059.0	0.44	-484.0	-0.8318181818181818	-915.0	-0.1306122448979592	128.0	94.753645696019	40039.0	0.9872331338527952	0.14968301575205045	-0.007716633993936605	0.05390906953717422	1.5228313194249375E12	1.522831319433E12	23.95001865645018	25455.0	2207.03125	6784.0	3875.457875457875	2645.0	0.0	0.0	
0.32291951309739014	0.9398693386093006	-0.048261180363544334	0.3381072090506662	-0.1467997651203757	-123.0	-0.06459189665296529	25.0	0.25572519083969464	81.0	0.5903614457831325	1238.0	9.74698795180723	1998.0	-0.14457831325301207	2059.0	0.4381818181818182	-482.0	-0.8354545454545454	-919.0	-0.1316326530612245	129.0	94.75955951584189	40041.0	0.9869936658270086	0.1510925939648966	-0.007758426229464283	0.05435382680882703	1.52283131943275E12	1.522831319443E12	23.95001865645018	25455.0	2214.84375	7040.0	3841.7582417582416	2622.0	0.0	0.0	
0.3259102449035996	0.9399956319645438	-0.04810471456446604	0.3377782531843244	-0.1606688476917485	-127.0	-0.002908033442384577	26.0	0.2838240639767358	79.0	0.6385542168674699	1236.0	9.771084337349398	1994.0	-0.12048192771084337	2057.0	0.43636363636363634	-480.0	-0.8372727272727273	-921.0	-0.1326530612244898	130.0	94.75955951584189	40041.0	0.9867521686507638	0.152500082533958	-0.007804262798564018	0.05479941580274132	1.5228313194405625E12	1.522831319449E12	23.95001865645018	25455.0	2222.65625	7296.0	3859.340659340659	2634.0	0.0	0.0	
0.3288982999231503	0.9401388494400283	-0.04791636662496326	0.33740623228245387	-0.0828172259830045	-122.0	-0.07921647702722155	21.0	0.036871669307215894	95.0	0.5903614457831325	1236.0	9.771084337349398	1998.0	-0.12048192771084337	2057.0	0.4318181818181818	-475.0	-0.8390909090909091	-923.0	-0.12959183673469388	127.0	94.75660260554497	40040.0	0.9865086840873092	0.15390913215276059	-0.007844337469464434	0.055236415795875314	1.522831319448375E12	1.52283131946E12	23.95001865645018	25455.0	2230.46875	7552.0	3875.457875457875	2645.0	0.0	0.0	
0.33189061852698226	0.940293820525605	-0.047713959124572464	0.3370028326083	0.0553613469358635	-130.0	0.04366126845972744	12.0	-0.05507597916815317	101.0	0.6144578313253012	1236.0	9.771084337349398	1996.0	-0.14457831325301207	2059.0	0.4354545454545454	-479.0	-0.8381818181818181	-922.0	-0.1316326530612245	129.0	94.753645696019	40039.0	0.9862626453830124	0.15532217886311872	-0.007881617353681812	0.055667721196449846	1.5228313194561875E12	1.522831319461E12	23.95001865645018	25455.0	2238.28125	7808.0	3876.9230769230767	2646.0	0.0	0.0	
0.3348746194366121	0.9404438881409699	-0.04753226623615852	0.3366095318388207	-0.08255583828102916	-120.0	-0.10941475826972016	21.0	0.05230421260955609	94.0	0.6024096385542169	1236.0	9.771084337349398	1997.0	-0.14457831325301207	2059.0	0.43727272727272726	-481.0	-0.8290909090909091	-912.0	-0.1316326530612245	129.0	94.753645696019	40039.0	0.9860150920429865	0.15673066156154059	-0.007921539633203193	0.05609801422316298	1.522831319464E12	1.522831319465E12	23.95001865645018	25455.0	2246.09375	8064.0	3847.6190476190473	2626.0	0.0	0.0	
0.33785895562523677	0.9405960974106672	-0.04730402165502959	0.3362161671768406	0.009804608165838	-140.0	0.1969325583024022	15.0	-0.0703130471321521	102.0	0.6144578313253012	1236.0	9.771084337349398	1996.0	-0.13253012048192772	2058.0	0.4318181818181818	-475.0	-0.8409090909090909	-925.0	-0.1326530612244898	130.0	94.76547333874858	40043.0	0.9857653155845907	0.15813975241302972	-0.00795309091039201	0.05652706999419918	1.5228313194718125E12	1.522831319478E12	23.95001865645018	25455.0	2253.90625	8320.0	3860.8058608058604	2635.0	0.0	0.0	
0.3408306126933477	0.9407428875091828	-0.047092115218827627	0.33583500753361334	-0.1887578070784177	-131.0	0.05773768216516307	28.0	0.021929215822345607	96.0	0.6024096385542169	1239.0	9.734939759036145	1997.0	-0.10843373493975904	2056.0	0.4354545454545454	-479.0	-0.83	-913.0	-0.1316326530612245	129.0	94.75660260554497	40040.0	0.9855144194117533	0.15954214235092082	-0.007986429713798739	0.05695481442353961	1.522831319479625E12	1.522831319484E12	23.95001865645018	25455.0	2261.71875	8576.0	3862.271062271062	2636.0	0.0	0.0	
0.3437994562825286	0.9408894130261477	-0.04687097601351924	0.3354552489719864	-0.17179011072140837	-132.0	0.07248469843889697	27.0	-0.05460422254315375	101.0	0.5903614457831325	1238.0	9.74698795180723	1998.0	-0.060240963855421686	2052.0	0.43272727272727274	-476.0	-0.8409090909090909	-925.0	-0.1316326530612245	129.0	94.75660260554497	40040.0	0.9852615881624334	0.16094326062402448	-0.008017486012499736	0.057381091566703644	1.5228313194874375E12	1.522831319495E12	23.95001865645018	25455.0	2269.53125	8832.0	3879.8534798534797	2648.0	0.0	0.0	
0.3467693528020417	0.9410540531919915	-0.04655666574692271	0.3350369320619001	-0.06338604143947649	-142.0	0.22450926935659754	20.0	-0.1609869138495091	108.0	0.5301204819277109	1237.0	9.759036144578314	2003.0	-0.07228915662650603	2053.0	0.4390909090909091	-483.0	-0.8327272727272728	-916.0	-0.1306122448979592	128.0	94.76251642690976	40042.0	0.9850064950574662	0.1623480659413454	-0.008031828368469437	0.05779965322361177	1.52283131949525E12	1.522831319504E12	23.95001865645018	25455.0	2277.34375	9088.0	3871.0622710622706	2642.0	0.0	0.0	
0.3497508513907346	0.9412117108876022	-0.04628113553360602	0.33463199455783155	0.08984665270553271	-132.0	0.06985070593798559	10.0	-0.022157670742417125	99.0	0.5421686746987953	1237.0	9.759036144578314	2002.0	-0.10843373493975904	2056.0	0.4381818181818182	-482.0	-0.8309090909090909	-914.0	-0.1285714285714286	126.0	94.76251642690976	40042.0	0.9847482206641829	0.16375715682372202	-0.008052244868914205	0.05822110304956207	1.5228313195030625E12	1.522831319516E12	23.95001865645018	25455.0	2285.15625	9344.0	3860.8058608058604	2635.0	0.0	0.0	
0.3527055604526045	0.9413830520713649	-0.045968415742175896	0.33419283958062485	-0.18575063613231552	-135.0	0.11503950716485872	28.0	-0.2967724655149325	117.0	0.49397590361445787	1237.0	9.759036144578314	2006.0	-0.0963855421686747	2055.0	0.43727272727272726	-481.0	-0.84	-924.0	-0.1326530612244898	130.0	94.76251642690976	40042.0	0.9844901078992893	0.16515633346805544	-0.008064703292255017	0.058630824014696464	1.522831319510875E12	1.522831319554E12	23.95001865645018	25455.0	2292.96875	9600.0	3873.9926739926736	2644.0	0.0	0.0	
0.35565788738109116	0.941545870040903	-0.04567367440010139	0.33377431008948477	-0.2299369399269831	-126.0	-0.023365416528377005	31.0	-0.1873216063723865	110.0	0.46987951807228917	1237.0	9.759036144578314	2008.0	-0.04819277108433735	2051.0	0.4318181818181818	-475.0	-0.8372727272727273	-921.0	-0.1326530612244898	130.0	94.75660260554497	40040.0	0.9842300571021656	0.1665530365901135	-0.008079361192710183	0.05904239681786171	1.5228313195186875E12	1.522831319555E12	23.95001865645018	25455.0	2300.78125	9856.0	3863.7362637362635	2637.0	0.0	0.0	
0.358614688174825	0.9417126384500766	-0.04537804104495485	0.3333438764614036	-0.12108449591997902	-128.0	0.007370360621216049	24.0	-0.20097394051066084	111.0	0.4819277108433735	1237.0	9.759036144578314	2007.0	-0.07228915662650603	2053.0	0.43272727272727274	-476.0	-0.8336363636363636	-917.0	-0.1326530612244898	130.0	94.75660260554497	40040.0	0.9839674626603435	0.16795262721404525	-0.00809308583122619	0.05945123547407385	1.5228313195265E12	1.522831319557E12	23.95001865645018	25455.0	2308.59375	10112.0	3875.457875457875	2645.0	0.0	0.0	
0.3615768192450911	0.9418856547812394	-0.045057087952828125	0.33289829098769497	-0.01317935669080708	-131.0	0.05310889280354927	17.0	-0.15345468780583293	108.0	0.4819277108433735	1236.0	9.771084337349398	2007.0	-0.12048192771084337	2057.0	0.4409090909090909	-485.0	-0.82	-902.0	-0.1306122448979592	128.0	94.75660260554497	40040.0	0.9837022383907817	0.16935592868150792	-0.008101498239409834	0.05985684030807567	1.5228313195343125E12	1.522831319558E12	23.95001865645018	25455.0	2316.40625	10368.0	3865.201465201465	2638.0	0.0	0.0	
0.364525508302857	0.9420462115366874	-0.04475066837630311	0.33248505682096013	-0.22680812524259278	-126.0	-0.023677060421788	31.0	-0.045283995342217595	101.0	0.46987951807228917	1237.0	9.759036144578314	2008.0	-0.07228915662650603	2053.0	0.4445454545454545	-489.0	-0.8290909090909091	-912.0	-0.1316326530612245	129.0	94.753645696019	40039.0	0.983436074556814	0.1707508777350275	-0.00811129625161208	0.060264681913376056	1.522831319542125E12	1.522831319569E12	23.95001865645018	25455.0	2324.21875	10624.0	3873.9926739926736	2644.0	0.0	0.0	
0.3674749754357706	0.9421929760649854	-0.04448959844647235	0.33210400702773485	-0.22490217461030215	-118.0	-0.14561549810763996	31.0	0.046699595868881956	95.0	0.49397590361445787	1237.0	9.759036144578314	2006.0	0.0	2047.0	0.44181818181818183	-486.0	-0.8354545454545454	-919.0	-0.12959183673469388	127.0	94.753645696019	40039.0	0.9831677019571142	0.17214376168799694	-0.008128490688340668	0.0606772014796554	1.5228313195499375E12	1.522831319571E12	23.95001865645018	25455.0	2332.03125	10880.0	3854.945054945055	2631.0	0.0	0.0	
0.37043582704237193	0.9423429898978246	-0.04423013814756571	0.3317128038980088	0.021246819338422485	-123.0	-0.06806615776081418	15.0	-0.06055979643765906	102.0	0.5060240963855422	1238.0	9.74698795180723	2005.0	0.024096385542168676	2045.0	0.43	-473.0	-0.84	-924.0	-0.12959183673469388	127.0	94.753645696019	40039.0	0.9828961428557136	0.17354256751936406	-0.008145454275302656	0.06108847021162591	1.52283131955775E12	1.522831319572E12	23.95001865645018	25455.0	2339.84375	11136.0	3871.0622710622706	2642.0	0.0	0.0	
0.3734053512334193	0.9425082822500491	-0.04391277273324948	0.3312850830945222	0.189010157087881	-133.0	0.0851681281938047	4.0	0.016276575610371553	97.0	0.4819277108433735	1235.0	9.783132530120483	2007.0	-0.024096385542168676	2049.0	0.44363636363636366	-488.0	-0.8290909090909091	-912.0	-0.13571428571428573	133.0	94.75660260554497	40040.0	0.9826216246871594	0.1749482814756018	-0.00815108394185176	0.06149309990945236	1.5228313195655625E12	1.522831319579E12	23.95001865645018	25455.0	2347.65625	11392.0	3865.201465201465	2638.0	0.0	0.0	
0.376354169072582	0.9426613785003295	-0.043635990493942414	0.3308858199099337	-0.11788261794518835	-119.0	-0.12927042923288706	24.0	0.031410336628707354	96.0	0.4819277108433735	1235.0	9.783132530120483	2007.0	-0.012048192771084338	2048.0	0.43636363636363634	-480.0	-0.8181818181818182	-900.0	-0.1285714285714286	126.0	94.76251642690976	40042.0	0.9823468771169188	0.17634222319115733	-0.008162918042841322	0.061898304562104454	1.522831319573375E12	1.522831319586E12	23.95001865645018	25455.0	2355.46875	11648.0	3866.6666666666665	2639.0	0.0	0.0	
0.37931038776825393	0.9428168992384198	-0.043372433546346165	0.3304771195086292	0.05101470862036868	-122.0	-0.08241792341587527	13.0	-0.029913734251846465	100.0	0.49397590361445787	1236.0	9.771084337349398	2006.0	0.0	2047.0	0.43454545454545457	-478.0	-0.84	-924.0	-0.1346938775510204	132.0	94.76251642690976	40042.0	0.9820692964421462	0.17774010836961213	-0.008176583433123115	0.06230163999244043	1.5228313195811875E12	1.522831319587E12	23.95001865645018	25455.0	2363.28125	11904.0	3875.457875457875	2645.0	0.0	0.0	
0.38227687412087763	0.942962675646134	-0.043109674608431056	0.3300953624234061	0.20327505540507265	-128.0	0.009849790691947732	3.0	0.07719773454814094	93.0	0.5301204819277109	1236.0	9.771084337349398	2003.0	0.0	2047.0	0.43727272727272726	-481.0	-0.8409090909090909	-925.0	-0.12959183673469388	127.0	94.75660260554497	40040.0	0.9817885948406823	0.1791409584323052	-0.008189834684355263	0.06271043502126822	1.522831319589E12	1.522831319596E12	23.95001865645018	25455.0	2371.09375	12160.0	3871.0622710622706	2642.0	0.0	0.0	
0.3852221343015624	0.943114099485617	-0.04285318581114486	0.3296959202314697	-0.02735877862595411	-124.0	-0.051297709923664114	18.0	-0.10662595419847341	105.0	0.5301204819277109	1237.0	9.759036144578314	2003.0	0.03614457831325302	2044.0	0.4381818181818182	-482.0	-0.8372727272727273	-921.0	-0.1285714285714286	126.0	94.76251642690976	40042.0	0.9815077649314666	0.18053309580905688	-0.008203056559101645	0.06311116034365981	1.5228313195968125E12	1.522831319603E12	23.95001865645018	25455.0	2378.90625	12416.0	3859.340659340659	2634.0	0.0	0.0	
0.38818290407824096	0.9432678991935459	-0.042577112762351196	0.32929145117936826	0.2171331636980491	-131.0	0.05597964376590338	2.0	0.01635768811341349	97.0	0.5301204819277109	1237.0	9.759036144578314	2003.0	0.03614457831325302	2044.0	0.4390909090909091	-483.0	-0.83	-913.0	-0.1316326530612245	129.0	94.76251642690976	40042.0	0.9812233108081031	0.18193291514656013	-0.008212065999490724	0.06351213021997597	1.522831319604625E12	1.522831319614E12	23.95001865645018	25455.0	2386.71875	12672.0	3865.201465201465	2638.0	0.0	0.0	
0.391158450942891	0.943427950276102	-0.04236965993476403	0.3288594145753411	0.45969826290797616	-110.0	-0.2650718278535794	-14.0	0.031496062992125984	96.0	0.5542168674698795	1238.0	9.74698795180723	2001.0	0.0	2047.0	0.4381818181818182	-482.0	-0.8245454545454546	-907.0	-0.1326530612244898	130.0	94.75955951584189	40041.0	0.9809352704714941	0.18334083507219873	-0.008233897280540949	0.06390881219064168	1.5228313196124375E12	1.522831319621E12	23.95001865645018	25455.0	2394.53125	12928.0	3873.9926739926736	2644.0	0.0	0.0	
0.3941244577878127	0.9435859658929685	-0.04214851221662284	0.32843420633020953	0.3797709923664122	-120.0	-0.11032919847328244	-9.0	-0.07562022900763359	103.0	0.5662650602409639	1236.0	9.771084337349398	2000.0	-0.07228915662650603	2053.0	0.43454545454545457	-478.0	-0.8372727272727273	-921.0	-0.1316326530612245	129.0	94.75955951584189	40041.0	0.9806459927925906	0.18474400400507104	-0.008252226284847907	0.06430389230328284	1.52283131962025E12	1.522831319629E12	23.95001865645018	25455.0	2402.34375	13184.0	3875.457875457875	2645.0	0.0	0.0	
0.39707524915471826	0.9437511846987551	-0.04184998080265764	0.3279973787799414	0.22415527546008635	-133.0	0.08899934907390963	1.0	-0.1361027279720692	107.0	0.5060240963855422	1236.0	9.771084337349398	2005.0	-0.08433734939759037	2054.0	0.4409090909090909	-485.0	-0.8372727272727273	-921.0	-0.13367346938775512	131.0	94.75955951584189	40041.0	0.9803560589277548	0.18614160824880188	-0.00825431836069668	0.06469285610166214	1.5228313196280625E12	1.522831319643E12	23.95001865645018	25455.0	2410.15625	13440.0	3866.6666666666665	2639.0	0.0	0.0	
0.400028969736463	0.9439143166591741	-0.04160746276918693	0.32755851667717883	0.2987668819729888	-119.0	-0.1254257193188492	-4.0	-0.16559013505578402	109.0	0.5421686746987953	1237.0	9.759036144578314	2002.0	-0.04819277108433735	2051.0	0.4390909090909091	-483.0	-0.8345454545454546	-918.0	-0.1306122448979592	128.0	94.753645696019	40039.0	0.980063700039349	0.18754022553417504	-0.008266717448735994	0.06508048136265218	1.522831319635875E12	1.522831319644E12	23.95001865645018	25455.0	2417.96875	13696.0	3862.271062271062	2636.0	0.0	0.0	
0.40298135864076157	0.9440792564428923	-0.04135307617755071	0.32711508776711684	0.34228774546937824	-118.0	-0.13973544665229304	-7.0	-0.24066196608589246	114.0	0.5180722891566265	1238.0	9.74698795180723	2004.0	-0.012048192771084338	2048.0	0.43454545454545457	-478.0	-0.8372727272727273	-921.0	-0.12959183673469388	127.0	94.76251642690976	40042.0	0.9797693367729725	0.18893865192599524	-0.008275994216225047	0.06546556688496763	1.5228313196436875E12	1.522831319656E12	23.95001865645018	25455.0	2425.78125	13952.0	3868.131868131868	2640.0	0.0	0.0	
0.4059383597376765	0.944247077688744	-0.0411045051096397	0.3266617148304373	0.4465648854961832	-113.0	-0.21501272264631036	-14.0	-0.23883876937312068	114.0	0.5060240963855422	1237.0	9.759036144578314	2005.0	-0.04819277108433735	2051.0	0.43363636363636365	-477.0	-0.84	-924.0	-0.1306122448979592	128.0	94.76251642690976	40042.0	0.9794723735858715	0.19033985736671588	-0.008285782211631332	0.06584796043021256	1.5228313196515E12	1.522831319657E12	23.95001865645018	25455.0	2433.59375	14208.0	3875.457875457875	2645.0	0.0	0.0	
0.4088751647905187	0.9444273125413888	-0.040783763669036105	0.32618052662112873	0.24473397233541863	-127.0	3.443723813349957E-4	-1.0	-0.38971474487746083	124.0	0.46987951807228917	1236.0	9.771084337349398	2008.0	-0.08433734939759037	2054.0	0.4409090909090909	-485.0	-0.8263636363636364	-909.0	-0.1306122448979592	128.0	94.753645696019	40039.0	0.9791753194228171	0.19173431484545714	-0.008279776410594854	0.06622002451341827	1.5228313196593125E12	1.522831319663E12	23.95001865645018	25455.0	2441.40625	14464.0	3866.6666666666665	2639.0	0.0	0.0	
0.41182718197751367	0.9445917600137159	-0.040483350436778635	0.3257414699598405	0.39557935513273335	-114.0	-0.19813148000455727	-11.0	-0.050928563290418144	102.0	0.43373493975903615	1236.0	9.771084337349398	2011.0	-0.08433734939759037	2054.0	0.44	-484.0	-0.8336363636363636	-917.0	-0.12959183673469388	127.0	94.753645696019	40039.0	0.9788745988366201	0.19313268225845856	-0.008277288017577739	0.06660160132589299	1.522831319667125E12	1.522831319714E12	23.95001865645018	25455.0	2449.21875	14720.0	3863.7362637362635	2637.0	0.0	0.0	
0.41477798309734704	0.944740123101455	-0.04019796528075065	0.325346313010513	0.3468476109697483	-123.0	-0.05925925925925934	-8.0	0.13265479219677706	90.0	0.46987951807228917	1238.0	9.74698795180723	2008.0	-0.060240963855421686	2052.0	0.4354545454545454	-479.0	-0.8372727272727273	-921.0	-0.1306122448979592	128.0	94.753645696019	40039.0	0.9785718708709369	0.19452723011044742	-0.008276983956677593	0.06699060995611507	1.5228313196749375E12	1.522831319716E12	23.95001865645018	25455.0	2457.03125	14976.0	3878.388278388278	2647.0	0.0	0.0	
0.41771779840585843	0.9449069437129003	-0.039888909470378806	0.3248995885260576	0.3442972608890884	-123.0	-0.058823529411764795	-8.0	-0.23473282442748092	114.0	0.44578313253012053	1237.0	9.759036144578314	2010.0	-0.04819277108433735	2051.0	0.43363636363636365	-477.0	-0.8390909090909091	-923.0	-0.1306122448979592	128.0	94.75660260554497	40040.0	0.9782681516780456	0.19592053258687914	-0.008270715375461292	0.067365893376929	1.52283131968275E12	1.522831319718E12	23.95001865645018	25455.0	2464.84375	15232.0	3875.457875457875	2645.0	0.0	0.0	
0.42066775498184833	0.9450635504125706	-0.039596326678616886	0.32447960890500327	0.4333871956315818	-111.0	-0.2416002674541707	-14.0	0.07232406530339325	94.0	0.43373493975903615	1237.0	9.759036144578314	2011.0	-0.03614457831325302	2050.0	0.44	-484.0	-0.8281818181818181	-911.0	-0.12755102040816327	125.0	94.753645696019	40039.0	0.9779612601445263	0.19731644550265942	-0.008267175717205488	0.06774693938759771	1.5228313196905625E12	1.52283131972E12	23.95001865645018	25455.0	2472.65625	15488.0	3866.6666666666665	2639.0	0.0	0.0	
0.42361433392450365	0.9452241172662701	-0.03929801548629669	0.32404788861686173	0.4455138842792344	-114.0	-0.19404801416085854	-15.0	-0.004535899988936788	99.0	0.42168674698795183	1237.0	9.759036144578314	2012.0	-0.07228915662650603	2053.0	0.43727272727272726	-481.0	-0.8390909090909091	-923.0	-0.1316326530612245	129.0	94.753645696019	40039.0	0.9776525960333602	0.19871165284720418	-0.008261504830708049	0.06812362314128728	1.522831319698375E12	1.522831319721E12	23.95001865645018	25455.0	2480.46875	15744.0	3875.457875457875	2645.0	0.0	0.0	
0.4265524615625605	0.9453762141553229	-0.03901820581883448	0.3236377501528924	0.32017134384095775	-117.0	-0.14685045856444606	-7.0	0.07183261024767978	94.0	0.44578313253012053	1236.0	9.771084337349398	2010.0	-0.08433734939759037	2054.0	0.4318181818181818	-475.0	-0.8381818181818181	-922.0	-0.1326530612244898	130.0	94.75068878726401	40038.0	0.9773427042706779	0.20010119429091128	-0.008258711681690985	0.0685021469268502	1.5228313197061875E12	1.522831319722E12	23.95001865645018	25455.0	2488.28125	16000.0	3878.388278388278	2647.0	0.0	0.0	
0.42949750465201036	0.9455225812537564	-0.03874336409134061	0.3232429428125522	0.4247546346782989	-123.0	-0.054198473282442705	-14.0	0.19345692475463477	86.0	0.4819277108433735	1236.0	9.771084337349398	2007.0	-0.04819277108433735	2051.0	0.4381818181818182	-482.0	-0.84	-924.0	-0.13367346938775512	131.0	94.75068878726401	40038.0	0.9770299664154022	0.2014927138928528	-0.008256286767632506	0.06888370419207755	1.522831319714E12	1.522831319723E12	23.95001865645018	25455.0	2496.09375	16256.0	3882.7838827838827	2650.0	0.0	0.0	
0.43245741482168976	0.9456798601709833	-0.03848926787315182	0.3228129153636439	0.7118185263385849	-117.0	-0.14541714038222067	-33.0	0.13101618753722039	90.0	0.5060240963855422	1236.0	9.771084337349398	2005.0	-0.04819277108433735	2051.0	0.4381818181818182	-482.0	-0.83	-913.0	-0.13571428571428573	133.0	94.75068878726401	40038.0	0.9767135152253477	0.20289342483298103	-0.008257783322874041	0.06925876370742089	1.5228313197218125E12	1.522831319734E12	23.95001865645018	25455.0	2503.90625	16512.0	3869.5970695970695	2641.0	0.0	0.0	
0.435399666690145	0.9458288272111232	-0.03827046681402596	0.3224022347724402	0.4777980862272874	-110.0	-0.2512633050209656	-18.0	0.06902483603913552	94.0	0.5301204819277109	1236.0	9.771084337349398	2003.0	-0.060240963855421686	2052.0	0.4354545454545454	-479.0	-0.8390909090909091	-923.0	-0.1316326530612245	129.0	94.75955951584189	40041.0	0.9763968317684076	0.20428419701600176	-0.008265820788718391	0.06963382776231572	1.522831319729625E12	1.522831319738E12	23.95001865645018	25455.0	2511.71875	16768.0	3863.7362637362635	2637.0	0.0	0.0	
0.43835520917367843	0.9459699520551609	-0.03808907917413207	0.32200942821045114	0.6271285965942454	-104.0	-0.34110927240698236	-28.0	0.2975497784658088	79.0	0.5783132530120483	1237.0	9.759036144578314	1999.0	-0.14457831325301207	2059.0	0.44	-484.0	-0.83	-913.0	-0.1285714285714286	126.0	94.753645696019	40039.0	0.9760765903350133	0.20567938586093154	-0.008281593295351374	0.07001353615076909	1.5228313197374375E12	1.522831319752E12	23.95001865645018	25455.0	2519.53125	17024.0	3876.9230769230767	2646.0	0.0	0.0	
0.44129681301319074	0.946116353983468	-0.03784912675860644	0.32160735117319417	0.5311704834605597	-128.0	0.027671755725190837	-22.0	0.11227735368956727	91.0	0.5662650602409639	1237.0	9.759036144578314	2000.0	-0.12048192771084337	2057.0	0.43636363636363634	-480.0	-0.8372727272727273	-921.0	-0.1326530612244898	130.0	94.753645696019	40039.0	0.9757557426842213	0.20706925373155302	-0.00828374903287269	0.07038774239725114	1.52283131974525E12	1.522831319754E12	23.95001865645018	25455.0	2527.34375	17280.0	3876.9230769230767	2646.0	0.0	0.0	
0.4442363549433599	0.9462692455375549	-0.03761449288416144	0.3211847830686481	0.5275072387470385	-109.0	-0.26259541984732826	-22.0	0.14203737825743612	89.0	0.5180722891566265	1235.0	9.783132530120483	2004.0	-0.1566265060240964	2060.0	0.4445454545454545	-489.0	-0.8327272727272728	-916.0	-0.1316326530612245	129.0	94.75955951584189	40041.0	0.9754330113380858	0.20845957192614079	-0.008286331952378738	0.07075580518274759	1.5228313197530625E12	1.522831319768E12	23.95001865645018	25455.0	2535.15625	17536.0	3860.8058608058604	2635.0	0.0	0.0	
0.4471545108477944	0.9464263721124604	-0.03734574114146833	0.32075289209707203	0.31015371745268216	-119.0	-0.10812506535605977	-8.0	-0.05740876294049973	102.0	0.49397590361445787	1236.0	9.771084337349398	2006.0	-0.1566265060240964	2060.0	0.4390909090909091	-483.0	-0.8336363636363636	-917.0	-0.1316326530612245	129.0	94.75955951584189	40041.0	0.9751105437384852	0.20984094896813588	-0.0082802698571811	0.07111709187867583	1.522831319760875E12	1.522831319769E12	23.95001865645018	25455.0	2542.96875	17792.0	3865.201465201465	2638.0	0.0	0.0	
0.45008193301471416	0.9465750606035377	-0.03709700269386981	0.32034273370022887	0.4301812327984629	-120.0	-0.09212234512125471	-16.0	0.09565352858700726	92.0	0.5301204819277109	1237.0	9.759036144578314	2003.0	-0.16867469879518074	2061.0	0.4381818181818182	-482.0	-0.83	-913.0	-0.12959183673469388	127.0	94.75955951584189	40041.0	0.9747849663625437	0.21122471852190794	-0.008278058738440659	0.0714832944291037	1.5228313197686875E12	1.522831319784E12	23.95001865645018	25455.0	2550.78125	18048.0	3866.6666666666665	2639.0	0.0	0.0	
0.45300008833344274	0.9467265002684417	-0.03687007135525742	0.3199211332933858	0.3662059005570456	-116.0	-0.1525685991334846	-12.0	-0.04239735919125239	101.0	0.5421686746987953	1236.0	9.771084337349398	2002.0	-0.14457831325301207	2059.0	0.43454545454545457	-478.0	-0.84	-924.0	-0.1326530612244898	130.0	94.75068878726401	40038.0	0.9744583410896316	0.21260480313226465	-0.008279850896467348	0.07184415936641185	1.5228313197765E12	1.522831319786E12	23.95001865645018	25455.0	2558.59375	18304.0	3873.9926739926736	2644.0	0.0	0.0	
0.4559212619418781	0.9468932574133115	-0.03661073841122116	0.31945705955291553	0.5164198985603771	-120.0	-0.09047594651365333	-22.0	-0.21005174445412161	112.0	0.5421686746987953	1236.0	9.771084337349398	2002.0	-0.16867469879518074	2061.0	0.44636363636363635	-491.0	-0.8290909090909091	-912.0	-0.1316326530612245	129.0	94.75660260554497	40040.0	0.9741293002326762	0.21398971938967265	-0.008273711506476917	0.07219454357244356	1.5228313197843125E12	1.522831319792E12	23.95001865645018	25455.0	2566.40625	18560.0	3868.131868131868	2640.0	0.0	0.0	
0.4588283767157737	0.9470430154032857	-0.036359112449018564	0.319041599039643	0.2534351145038166	-124.0	-0.028804071246819392	-5.0	0.020356234096692256	97.0	0.5421686746987953	1237.0	9.759036144578314	2002.0	-0.21686746987951808	2065.0	0.4409090909090909	-485.0	-0.83	-913.0	-0.1306122448979592	128.0	94.75660260554497	40040.0	0.9737997798160491	0.21536430508302976	-0.008268320296606721	0.07255232460638761	1.522831319792125E12	1.522831319801E12	23.95001865645018	25455.0	2574.21875	18816.0	3862.271062271062	2636.0	0.0	0.0	
0.46173226054038535	0.9471896858012351	-0.03611721656676044	0.31863340342660684	0.23648956068955052	-123.0	-0.043880491380617816	-4.0	0.020221424599362884	97.0	0.5542168674698795	1237.0	9.759036144578314	2001.0	-0.20481927710843376	2064.0	0.4409090909090909	-485.0	-0.8336363636363636	-917.0	-0.12959183673469388	127.0	94.76251642690976	40042.0	0.9734685715826996	0.2167366636321033	-0.008264368938663098	0.07290993748734369	1.5228313197999375E12	1.522831319809E12	23.95001865645018	25455.0	2582.03125	19072.0	3856.4102564102564	2632.0	0.0	0.0	
0.4646360545614522	0.9473303982905541	-0.03587489834919346	0.31824221615475956	0.25020088388911205	-125.0	-0.013057452792286104	-5.0	0.08115709120128557	93.0	0.5662650602409639	1236.0	9.771084337349398	2000.0	-0.18072289156626506	2062.0	0.4354545454545454	-479.0	-0.8209090909090909	-903.0	-0.12448979591836735	122.0	94.75955951584189	40041.0	0.973135321484146	0.21810756677774917	-0.00825961755419339	0.07327014475279633	1.52283131980775E12	1.522831319817E12	23.95001865645018	25455.0	2589.84375	19328.0	3879.8534798534797	2648.0	0.0	0.0	
0.4675396205972343	0.9474868612067344	-0.035628547088470984	0.31780379870759357	0.3554358130020455	-124.0	-0.02823928553609745	-12.0	-0.10257945417352698	105.0	0.5542168674698795	1236.0	9.771084337349398	2001.0	-0.20481927710843376	2064.0	0.4354545454545454	-479.0	-0.8236363636363636	-906.0	-0.1326530612244898	130.0	94.75955951584189	40041.0	0.9728000464178936	0.21948195123786796	-0.00825322582815388	0.0736181162051279	1.5228313198155625E12	1.522831319827E12	23.95001865645018	25455.0	2597.65625	19584.0	3862.271062271062	2636.0	0.0	0.0	
0.47043199672490715	0.9476419172004884	-0.035369503976575886	0.3173701229684824	0.23099038366213923	-126.0	0.002478437592941418	-4.0	-0.147714880539308	108.0	0.5421686746987953	1235.0	9.783132530120483	2002.0	-0.2530120481927711	2068.0	0.43636363636363634	-480.0	-0.8263636363636364	-909.0	-0.12959183673469388	127.0	94.75955951584189	40041.0	0.9724640249429841	0.22085083113634651	-0.00824297048106883	0.07396407246578655	1.522831319823375E12	1.522831319858E12	23.95001865645018	25455.0	2605.46875	19840.0	3862.271062271062	2636.0	0.0	0.0	
0.47331833379885857	0.9477946367472758	-0.03509380690080872	0.3169443977581933	0.16843142083230742	-133.0	0.10933267668062047	0.0	-0.10096035459246486	105.0	0.5301204819277109	1235.0	9.783132530120483	2003.0	-0.2530120481927711	2068.0	0.4390909090909091	-483.0	-0.8336363636363636	-917.0	-0.1326530612244898	130.0	94.75068878726401	40038.0	0.9721266775502106	0.22221635534367548	-0.008227961588172445	0.07430958794842994	1.5228313198311875E12	1.522831319859E12	23.95001865645018	25455.0	2613.28125	20096.0	3866.6666666666665	2639.0	0.0	0.0	
0.47619505707551896	0.94794366237808	-0.03481357681227713	0.31652934749683426	0.06048150322959494	-131.0	0.0780974750440399	7.0	-0.10031317283225676	105.0	0.5060240963855422	1236.0	9.771084337349398	2005.0	-0.21686746987951808	2065.0	0.4381818181818182	-482.0	-0.84	-924.0	-0.1316326530612245	129.0	94.75068878726401	40038.0	0.9717884392138427	0.223576545887755	-0.008210930208827719	0.07465479331114681	1.522831319839E12	1.52283131986E12	23.95001865645018	25455.0	2621.09375	20352.0	3878.388278388278	2647.0	0.0	0.0	
0.47906826224138016	0.9480986787027643	-0.03455200936531041	0.3160934262063813	0.09063062186998568	-123.0	-0.044537365682890115	5.0	-0.2523459911508729	115.0	0.5180722891566265	1236.0	9.771084337349398	2004.0	-0.18072289156626506	2062.0	0.4381818181818182	-482.0	-0.84	-924.0	-0.1316326530612245	129.0	94.75068878726401	40038.0	0.9714486076976164	0.22493649165076646	-0.008197467142082084	0.07499319208209182	1.5228313198468125E12	1.522831319868E12	23.95001865645018	25455.0	2628.90625	20608.0	3869.5970695970695	2641.0	0.0	0.0	
0.4819271662531253	0.9482559747120721	-0.0343038238303723	0.3156483076043211	-0.09314909653106568	-116.0	-0.15112571262923952	17.0	-0.25074886462460133	115.0	0.5180722891566265	1236.0	9.771084337349398	2004.0	-0.21686746987951808	2065.0	0.43636363636363634	-480.0	-0.8218181818181818	-904.0	-0.1316326530612245	129.0	94.74773187927997	40037.0	0.9711084777075603	0.22629036522667922	-0.008186212404940184	0.07532583259773651	1.522831319854625E12	1.522831319888E12	23.95001865645018	25455.0	2636.71875	20864.0	3878.388278388278	2647.0	0.0	0.0	
0.48479553646956125	0.9484055354161472	-0.034030627739643535	0.3152282613720658	0.02957415142349593	-123.0	-0.043305007441547715	9.0	-0.05069854529742179	102.0	0.49397590361445787	1236.0	9.771084337349398	2006.0	-0.24096385542168675	2067.0	0.43727272727272726	-481.0	-0.8236363636363636	-906.0	-0.12959183673469388	127.0	94.74773187927997	40037.0	0.9707652273394661	0.2276467141114278	-0.008168405070178969	0.07566454983302212	1.5228313198624375E12	1.52283131989E12	23.95001865645018	25455.0	2644.53125	21120.0	3854.945054945055	2631.0	0.0	0.0	
0.48765661146749084	0.9485553685533422	-0.033727463639964525	0.3148097377544886	-0.046946564885496006	-128.0	0.03330152671755734	14.0	0.025954198473282484	97.0	0.44578313253012053	1237.0	9.759036144578314	2010.0	-0.21686746987951808	2065.0	0.44	-484.0	-0.8272727272727273	-910.0	-0.1346938775510204	132.0	94.74773187927997	40037.0	0.9704208608277021	0.22899971936287053	-0.008142465863803667	0.07600119506826943	1.52283131987025E12	1.522831319891E12	23.95001865645018	25455.0	2652.34375	21376.0	3873.9926739926736	2644.0	0.0	0.0	
0.4905037464302685	0.948699455535547	-0.033466591972627475	0.31440313339451664	-0.2298610781850081	-126.0	0.0025603337916647313	26.0	-0.0047413588734531095	99.0	0.5180722891566265	1236.0	9.771084337349398	2004.0	-0.18072289156626506	2062.0	0.4409090909090909	-485.0	-0.8245454545454546	-907.0	-0.13367346938775512	131.0	94.753645696019	40039.0	0.9700762007590934	0.2303448621986455	-0.008125710910038914	0.07633729102932824	1.5228313198780625E12	1.5228313199E12	23.95001865645018	25455.0	2660.15625	21632.0	3863.7362637362635	2637.0	0.0	0.0	
0.4933617181208447	0.9488454649273884	-0.033171799211361125	0.31399349583042674	0.0158326265196493	-133.0	0.10941475826971996	10.0	-0.11158232023371957	106.0	0.49397590361445787	1237.0	9.759036144578314	2006.0	-0.13253012048192772	2058.0	0.4381818181818182	-482.0	-0.8290909090909091	-912.0	-0.1285714285714286	126.0	94.753645696019	40039.0	0.96972825171048	0.23169539116683643	-0.008100110374213817	0.07667301845178813	1.522831319885875E12	1.522831319901E12	23.95001865645018	25455.0	2667.96875	21888.0	3865.201465201465	2638.0	0.0	0.0	
0.49621968788169823	0.9489800034402229	-0.032909749134540686	0.3136142558661754	-0.045333208448461365	-126.0	0.0018732730763825632	14.0	0.17917856975600616	87.0	0.5060240963855422	1237.0	9.759036144578314	2005.0	-0.13253012048192772	2058.0	0.4409090909090909	-485.0	-0.8336363636363636	-917.0	-0.1316326530612245	129.0	94.75660260554497	40040.0	0.9693783227135272	0.23304303385573033	-0.008081716952877247	0.07701491852569317	1.5228313198936875E12	1.522831319903E12	23.95001865645018	25455.0	2675.78125	22144.0	3856.4102564102564	2632.0	0.0	0.0	
0.4990552386050699	0.949126721973218	-0.032626325185791547	0.31319959856494317	-0.22826289331595592	-128.0	0.03239620182461371	26.0	-0.20359337181158083	112.0	0.49397590361445787	1236.0	9.771084337349398	2006.0	-0.1566265060240964	2060.0	0.44	-484.0	-0.8318181818181818	-915.0	-0.1285714285714286	126.0	94.75660260554497	40040.0	0.9690291824578628	0.2343832716137447	-0.008056948203798988	0.07734346202701718	1.5228313199015E12	1.522831319904E12	23.95001865645018	25455.0	2683.59375	22400.0	3876.9230769230767	2646.0	0.0	0.0	
0.5018960409544713	0.9492694777325872	-0.032336689584944636	0.3127967345609466	-0.15054360397871835	-129.0	0.047467036780013884	21.0	-0.049687716863289315	102.0	0.4819277108433735	1237.0	9.759036144578314	2007.0	-0.13253012048192772	2058.0	0.44272727272727275	-487.0	-0.8309090909090909	-914.0	-0.12959183673469388	127.0	94.75660260554497	40040.0	0.9686774423247437	0.2357248718789208	-0.008029924260923948	0.07767443482397005	1.5228313199093125E12	1.522831319917E12	23.95001865645018	25455.0	2691.40625	22656.0	3865.201465201465	2638.0	0.0	0.0	
0.5047448182096808	0.949407336851923	-0.03207025918845763	0.3124055172485354	-0.042766485790490014	-131.0	0.07771544192035314	14.0	0.11855053802998262	91.0	0.5180722891566265	1236.0	9.771084337349398	2004.0	-0.10843373493975904	2056.0	0.44363636363636366	-488.0	-0.8345454545454546	-918.0	-0.13571428571428573	133.0	94.75068878726401	40038.0	0.9683227521800153	0.2370688325144549	-0.008008005214551467	0.07800825669913262	1.522831319917125E12	1.522831319923E12	23.95001865645018	25455.0	2699.21875	22912.0	3857.8754578754574	2633.0	0.0	0.0	
0.5075939853841462	0.9495471000068179	-0.03179941066232202	0.3120081767360709	0.01855830324084665	-131.0	0.07725007999268647	10.0	0.05677195227864869	95.0	0.5180722891566265	1236.0	9.771084337349398	2004.0	-0.12048192771084337	2057.0	0.44181818181818183	-486.0	-0.83	-913.0	-0.1326530612244898	130.0	94.75068878726401	40038.0	0.9679660484714215	0.23841334971449057	-0.007984231656224788	0.0783393625797218	1.5228313199249375E12	1.522831319934E12	23.95001865645018	25455.0	2707.03125	23168.0	3878.388278388278	2647.0	0.0	0.0	
0.5104278069803028	0.9496755325151347	-0.03153092451193558	0.3116443224920385	-0.22582697201017818	-136.0	0.15312613595056332	26.0	0.17857142857142852	87.0	0.5301204819277109	1236.0	9.771084337349398	2003.0	-0.13253012048192772	2058.0	0.44181818181818183	-486.0	-0.8309090909090909	-914.0	-0.12959183673469388	127.0	94.75068878726401	40038.0	0.9676093173781322	0.23974785735557252	-0.007960057233607189	0.07867535386177232	1.52283131993275E12	1.522831319942E12	23.95001865645018	25455.0	2714.84375	23424.0	3878.388278388278	2647.0	0.0	0.0	
0.5132491931891194	0.9498190051604749	-0.03125272375035161	0.3112348384968309	-0.2550250688829668	-129.0	0.04534983513257146	28.0	-0.18889742084104974	111.0	0.4819277108433735	1237.0	9.759036144578314	2007.0	-0.14457831325301207	2059.0	0.43	-473.0	-0.8318181818181818	-915.0	-0.1306122448979592	128.0	94.75955951584189	40041.0	0.9672522218535717	0.2410803410902496	-0.007932476883278564	0.07899673581632297	1.5228313199405625E12	1.522831319949E12	23.95001865645018	25455.0	2722.65625	23680.0	3871.0622710622706	2642.0	0.0	0.0	
0.5160716808146562	0.9499678720353543	-0.030971943131662703	0.3108082702234129	-0.19245621912887279	-122.0	-0.061787157611136054	24.0	-0.1725190839694656	110.0	0.45783132530120485	1237.0	9.759036144578314	2009.0	-0.13253012048192772	2058.0	0.43272727272727274	-476.0	-0.8236363636363636	-906.0	-0.1326530612244898	130.0	94.75068878726401	40038.0	0.9668930609135102	0.2424146189396002	-0.00790347969978669	0.07931264899312393	1.522831319948375E12	1.52283131996E12	23.95001865645018	25455.0	2730.46875	23936.0	3853.4798534798533	2630.0	0.0	0.0	
0.5189037008253462	0.950108599466441	-0.030713403845917274	0.31040350520590615	-0.08446051515557353	-116.0	-0.1530288826391679	17.0	0.057497433150305685	95.0	0.46987951807228917	1236.0	9.771084337349398	2008.0	-0.10843373493975904	2056.0	0.43727272727272726	-481.0	-0.83	-913.0	-0.13367346938775512	131.0	94.75068878726401	40038.0	0.9665307515412719	0.24375110895588614	-0.007879547929001503	0.07963426355705377	1.5228313199561875E12	1.522831319962E12	23.95001865645018	25455.0	2738.28125	24192.0	3868.131868131868	2640.0	0.0	0.0	
0.5217150829829493	0.9502411998415311	-0.030437855348043198	0.3100245136848619	-0.35877862595419846	-132.0	0.09213562932717921	35.0	0.041895970175750065	96.0	0.49397590361445787	1237.0	9.759036144578314	2006.0	-0.08433734939759037	2054.0	0.4390909090909091	-483.0	-0.8336363636363636	-917.0	-0.1316326530612245	129.0	94.753645696019	40039.0	0.9661691655909768	0.24507592558232844	-0.007850202215402495	0.07995816710241532	1.522831319964E12	1.522831319964E12	23.95001865645018	25455.0	2746.09375	24448.0	3850.5494505494503	2628.0	0.0	0.0	
0.5245455395604643	0.9503688933677297	-0.030228352130206044	0.3096533759649464	-0.08189560075894645	-122.0	-0.061068702290076333	17.0	0.1332568503728544	90.0	0.5783132530120483	1237.0	9.759036144578314	1999.0	-0.07228915662650603	2053.0	0.43272727272727274	-476.0	-0.8318181818181818	-915.0	-0.1316326530612245	129.0	94.75660260554497	40040.0	0.965803197793933	0.24640809986452822	-0.007837494327118992	0.08028577168364386	1.5228313199718125E12	1.522831320018E12	23.95001865645018	25455.0	2753.90625	24704.0	3873.9926739926736	2644.0	0.0	0.0	
0.5273696800100681	0.9505018791897071	-0.030001377355262957	0.30926702865585637	-0.09669211195928748	-127.0	0.015618145125910261	18.0	0.010353601825041718	98.0	0.5783132530120483	1237.0	9.759036144578314	1999.0	-0.08433734939759037	2054.0	0.43363636363636365	-477.0	-0.8245454545454546	-907.0	-0.1306122448979592	128.0	94.75660260554497	40040.0	0.9654361187398335	0.24773861110072187	-0.007819552722439246	0.08060729370021291	1.522831319979625E12	1.522831320019E12	23.95001865645018	25455.0	2761.71875	24960.0	3853.4798534798533	2630.0	0.0	0.0	
0.5301799109982311	0.9506366168430656	-0.02975002974666044	0.3088769309081659	-0.23354416575790643	-132.0	0.09186477644492912	27.0	-0.06604143947655394	103.0	0.5542168674698795	1238.0	9.74698795180723	2001.0	-0.04819277108433735	2051.0	0.4390909090909091	-483.0	-0.83	-913.0	-0.1316326530612245	129.0	94.74477497206688	40036.0	0.9650689367976624	0.24906306946288223	-0.007794391246911657	0.08092454586247255	1.5228313199874375E12	1.522831320019E12	23.95001865645018	25455.0	2769.53125	25216.0	3873.9926739926736	2644.0	0.0	0.0	
0.5329891686843115	0.9507705091098825	-0.029533714054707165	0.30848532986362515	-0.20168285912560738	-121.0	-0.07659611380985425	25.0	-0.12673490631505893	107.0	0.5783132530120483	1237.0	9.759036144578314	1999.0	-0.012048192771084338	2048.0	0.43727272727272726	-481.0	-0.84	-924.0	-0.1316326530612245	129.0	94.75068878726401	40038.0	0.9646999776327231	0.2503867325104828	-0.007777744566330898	0.08124003955937248	1.52283131999525E12	1.522831320019E12	23.95001865645018	25455.0	2777.34375	25472.0	3879.8534798534797	2648.0	0.0	0.0	
0.5358073994046423	0.9509057903485908	-0.02932146452731346	0.30808834706865396	-0.017337301073877678	-123.0	-0.0456290162591107	13.0	-0.15655324104023816	109.0	0.5903614457831325	1238.0	9.74698795180723	1998.0	-0.012048192771084338	2048.0	0.4290909090909091	-472.0	-0.8354545454545454	-919.0	-0.1316326530612245	129.0	94.75068878726401	40038.0	0.9643279275137443	0.25171474615060396	-0.007761699502903426	0.08155422005151147	1.5228313200030625E12	1.52283132002E12	23.95001865645018	25455.0	2785.15625	25728.0	3873.9926739926736	2644.0	0.0	0.0	
0.5386263736629886	0.9510516226854425	-0.029058815975207118	0.30766279625833914	0.07436315292906767	-127.0	0.015696028818938133	7.0	-0.23200960631271983	114.0	0.5301204819277109	1238.0	9.74698795180723	2003.0	-0.07228915662650603	2053.0	0.4354545454545454	-479.0	-0.8245454545454546	-907.0	-0.1306122448979592	128.0	94.75068878726401	40038.0	0.9639538637033624	0.2530457757856591	-0.007731662989119406	0.08185966892075446	1.522831320010875E12	1.522831320053E12	23.95001865645018	25455.0	2792.96875	25984.0	3875.457875457875	2645.0	0.0	0.0	
0.541442878051458	0.9511925112695047	-0.028789095045459026	0.3072523303593965	0.04341336517548715	-126.0	3.411659345813266E-4	9.0	-0.12384323425305994	107.0	0.5060240963855422	1237.0	9.759036144578314	2005.0	-0.07228915662650603	2053.0	0.4390909090909091	-483.0	-0.8327272727272728	-916.0	-0.12959183673469388	127.0	94.74477497206688	40036.0	0.963578215105802	0.25437424501074485	-0.0076989717958958	0.08216746729707897	1.5228313200186875E12	1.522831320054E12	23.95001865645018	25455.0	2800.78125	26240.0	3881.3186813186812	2649.0	0.0	0.0	
0.5442487912158048	0.9513290695795954	-0.0285109845422948	0.3068552185204874	-0.09423240033927062	-125.0	-0.014927905004240828	18.0	-0.09262086513994905	105.0	0.4819277108433735	1237.0	9.759036144578314	2007.0	-0.0963855421686747	2055.0	0.44	-484.0	-0.8363636363636363	-920.0	-0.12551020408163266	123.0	94.74477497206688	40036.0	0.9632020789239825	0.2556965757394167	-0.00766313292796344	0.08247601290911079	1.5228313200265E12	1.522831320057E12	23.95001865645018	25455.0	2808.59375	26496.0	3843.223443223443	2623.0	0.0	0.0	
0.5470562054339342	0.9514728211375099	-0.028208144987155213	0.3064372222707441	0.013158449664712472	-130.0	0.06149044747163764	11.0	-0.16844502551558332	110.0	0.45783132530120485	1236.0	9.771084337349398	2009.0	-0.07228915662650603	2053.0	0.44181818181818183	-486.0	-0.8345454545454546	-918.0	-0.12959183673469388	127.0	94.75660260554497	40040.0	0.9628238441445812	0.2570214029201427	-0.007619867680198945	0.08277790287358662	1.5228313200343125E12	1.522831320058E12	23.95001865645018	25455.0	2816.40625	26752.0	3873.9926739926736	2644.0	0.0	0.0	
0.5498659462151839	0.9516188442057422	-0.02790656669072332	0.30601110909256474	0.10468920392584517	-128.0	0.030618236725107034	5.0	-0.19805385454240418	112.0	0.44578313253012053	1236.0	9.771084337349398	2010.0	-0.04819277108433735	2051.0	0.43363636363636365	-477.0	-0.8281818181818181	-911.0	-0.1306122448979592	128.0	94.74477497206688	40036.0	0.9624433964136536	0.2583477943327016	-0.0075761424816720825	0.0830766388840819	1.522831320042125E12	1.522831320059E12	23.95001865645018	25455.0	2824.21875	27008.0	3857.8754578754574	2633.0	0.0	0.0	
0.5526719413854003	0.9517649036758677	-0.027607084149793768	0.3055837316278685	0.07358278062820696	-128.0	0.0304509239561172	7.0	-0.15117006632461516	109.0	0.44578313253012053	1236.0	9.771084337349398	2010.0	-0.07228915662650603	2053.0	0.4381818181818182	-482.0	-0.8318181818181818	-915.0	-0.13367346938775512	131.0	94.74477497206688	40036.0	0.9620615601100556	0.2596723658180105	-0.007532108850438602	0.08337316310029493	1.5228313200499375E12	1.522831320062E12	23.95001865645018	25455.0	2832.03125	27264.0	3881.3186813186812	2649.0	0.0	0.0	
0.5554798358560683	0.9519058747130911	-0.027308136664291806	0.3051712164648417	0.0884500497842681	-126.0	-2.4892134085638374E-4	6.0	0.03285761699303007	97.0	0.43373493975903615	1236.0	9.771084337349398	2011.0	-0.07228915662650603	2053.0	0.4390909090909091	-483.0	-0.8254545454545454	-908.0	-0.1326530612244898	130.0	94.74773187927997	40037.0	0.9616775697052532	0.26099629463559065	-0.007487423570035944	0.08367272315738769	1.52283132005775E12	1.522831320069E12	23.95001865645018	25455.0	2839.84375	27520.0	3844.688644688644	2624.0	0.0	0.0	
0.5582868381931054	0.9520434072300602	-0.027005590710539467	0.3047688448974932	0.13377346812461308	-130.0	0.06082112646998134	3.0	-0.07419022075510623	104.0	0.43373493975903615	1235.0	9.783132530120483	2011.0	-0.07228915662650603	2053.0	0.4318181818181818	-475.0	-0.8372727272727273	-921.0	-0.12755102040816327	125.0	94.75068878726401	40038.0	0.9612918066749551	0.2623187340127869	-0.0074409132111602685	0.0839736685879185	1.5228313200655625E12	1.522831320072E12	23.95001865645018	25455.0	2847.65625	27776.0	3875.457875457875	2645.0	0.0	0.0	
0.561089713468646	0.9521770997181449	-0.026728592363500787	0.30437534907183983	0.05671837806779941	-120.0	-0.09217762455881137	8.0	0.12468193384223904	91.0	0.43373493975903615	1236.0	9.771084337349398	2011.0	-0.03614457831325302	2050.0	0.4318181818181818	-475.0	-0.83	-913.0	-0.1316326530612245	129.0	94.75068878726401	40038.0	0.9609047214283196	0.26363807651922544	-0.0074005924747252375	0.0842752168613602	1.522831320073375E12	1.522831320092E12	23.95001865645018	25455.0	2855.46875	28032.0	3859.340659340659	2634.0	0.0	0.0	
0.5638977842428583	0.9523182315730819	-0.026432354522552666	0.3039593993412827	0.20908682695840297	-120.0	-0.09168469608523484	-2.0	0.06294648324284609	95.0	0.4096385542168675	1236.0	9.771084337349398	2013.0	-0.04819277108433735	2051.0	0.4354545454545454	-479.0	-0.8245454545454546	-907.0	-0.1326530612244898	130.0	94.74773187927997	40037.0	0.9605150261750784	0.26496170733282687	-0.007354224198305356	0.08457005099680931	1.5228313200811875E12	1.522831320093E12	23.95001865645018	25455.0	2863.28125	28288.0	3878.388278388278	2647.0	0.0	0.0	
0.5667111512106876	0.9524515739278256	-0.026186784962472728	0.30356259917146816	0.2537761897027775	-116.0	-0.15226571382166623	-5.0	0.20001624167614102	86.0	0.49397590361445787	1236.0	9.771084337349398	2006.0	-0.08433734939759037	2054.0	0.4381818181818182	-482.0	-0.8281818181818181	-911.0	-0.1326530612244898	130.0	94.74773187927997	40037.0	0.9601226970952753	0.2662854403296123	-0.007321274651048378	0.08486972209476491	1.522831320089E12	1.522831320094E12	23.95001865645018	25455.0	2871.09375	28544.0	3875.457875457875	2645.0	0.0	0.0	
0.5695184931490188	0.9525861407063784	-0.025916873159405288	0.3031632567112452	0.2677006341128479	-131.0	0.07754755846358916	-6.0	-0.04531685447715971	102.0	0.5060240963855422	1237.0	9.759036144578314	2005.0	-0.0963855421686747	2055.0	0.43454545454545457	-478.0	-0.8381818181818181	-922.0	-0.1285714285714286	126.0	94.74773187927997	40037.0	0.9597293144641929	0.26760659645507645	-0.007280733910114859	0.08516656272006343	1.5228313200968125E12	1.522831320103E12	23.95001865645018	25455.0	2878.90625	28800.0	3866.6666666666665	2639.0	0.0	0.0	
0.5723152493222005	0.9527091797962851	-0.02570735528429466	0.30279423808285594	0.022016874246685313	-115.0	-0.16713539574126152	10.0	0.3060666934511853	79.0	0.5542168674698795	1237.0	9.759036144578314	2001.0	-0.0963855421686747	2055.0	0.4409090909090909	-485.0	-0.8336363636363636	-917.0	-0.1316326530612245	129.0	94.74773187927997	40037.0	0.9593355349120738	0.2689194964003552	-0.00725636866259204	0.08546918172404112	1.522831320104625E12	1.522831320107E12	23.95001865645018	25455.0	2886.71875	29056.0	3856.4102564102564	2632.0	0.0	0.0	
0.5751218783801002	0.9528383585539293	-0.025491921464331185	0.30240572813409045	0.2661764118140762	-126.0	0.001678589984413053	-6.0	0.10599096758722681	92.0	0.6024096385542169	1236.0	9.771084337349398	1997.0	-0.12048192771084337	2057.0	0.4354545454545454	-479.0	-0.8254545454545454	-908.0	-0.1306122448979592	128.0	94.74477497206688	40036.0	0.9589384793834962	0.27023845236553795	-0.007229869938065466	0.08576654709981944	1.5228313201124375E12	1.522831320159E12	23.95001865645018	25455.0	2894.53125	29312.0	3876.9230769230767	2646.0	0.0	0.0	
0.5779131708514508	0.9529710172560866	-0.02523752432326407	0.3020087873488661	0.1273854961832061	-138.0	0.18487595419847327	3.0	-0.03196564885496183	101.0	0.5662650602409639	1236.0	9.771084337349398	2000.0	-0.13253012048192772	2058.0	0.43636363636363634	-480.0	-0.83	-913.0	-0.1316326530612245	129.0	94.74477497206688	40036.0	0.958541720551077	0.27155121077539135	-0.007191488684187447	0.08605807562283288	1.52283132012025E12	1.522831320162E12	23.95001865645018	25455.0	2902.34375	29568.0	3878.388278388278	2647.0	0.0	0.0	
0.5806999766111623	0.9531014689399443	-0.025032698343979268	0.30161391532577114	0.08092394098801549	-121.0	-0.07562393703278888	6.0	-0.07760155044891824	104.0	0.6024096385542169	1237.0	9.759036144578314	1997.0	-0.16867469879518074	2061.0	0.43363636363636365	-477.0	-0.8381818181818181	-922.0	-0.1285714285714286	126.0	94.75068878726401	40038.0	0.958143736891484	0.27286111469080687	-0.007166550673197305	0.08634831843621285	1.5228313201280625E12	1.522831320163E12	23.95001865645018	25455.0	2910.15625	29824.0	3868.131868131868	2640.0	0.0	0.0	
0.58349210646221	0.9532314956214021	-0.024829437632773423	0.30121954581704363	0.1873770362792161	-121.0	-0.07523412292437245	-1.0	-0.03140001573935612	101.0	0.6024096385542169	1236.0	9.771084337349398	1997.0	-0.18072289156626506	2062.0	0.4290909090909091	-472.0	-0.8336363636363636	-917.0	-0.1285714285714286	126.0	94.74773187927997	40037.0	0.9577431272602237	0.2741731452315326	-0.007141565339980594	0.08663825173761741	1.522831320135875E12	1.522831320164E12	23.95001865645018	25455.0	2917.96875	30080.0	3871.0622710622706	2642.0	0.0	0.0	
0.5862719138400334	0.9533640085328409	-0.02460098541442606	0.30081864761152827	0.07954589939322754	-126.0	0.0014875709532198571	6.0	-0.12284204345273042	107.0	0.5783132530120483	1237.0	9.759036144578314	1999.0	-0.1566265060240964	2060.0	0.4318181818181818	-475.0	-0.83	-913.0	-0.12755102040816327	125.0	94.74773187927997	40037.0	0.9573424313339031	0.27548008421512327	-0.007108598051829704	0.08692330068662191	1.5228313201436875E12	1.522831320165E12	23.95001865645018	25455.0	2925.78125	30336.0	3878.388278388278	2647.0	0.0	0.0	
0.5890397871686402	0.9535050255570574	-0.024354741503813105	0.3003914326403414	-0.01246300046736245	-117.0	-0.13592459884717237	12.0	-0.1985511761956691	112.0	0.5180722891566265	1236.0	9.771084337349398	2004.0	-0.13253012048192772	2058.0	0.44	-484.0	-0.8309090909090909	-914.0	-0.1316326530612245	129.0	94.753645696019	40039.0	0.9569416181105065	0.2767838676920505	-0.007069705318152115	0.08719776017874221	1.5228313201515E12	1.522831320166E12	23.95001865645018	25455.0	2933.59375	30592.0	3876.9230769230767	2646.0	0.0	0.0	
0.5918050393645967	0.9536439723674665	-0.024106913421904762	0.2999700496590685	0.0028674390669199534	-115.0	-0.16576897740923	11.0	-0.24334482892238538	115.0	0.49397590361445787	1238.0	9.74698795180723	2006.0	-0.0963855421686747	2055.0	0.43272727272727274	-476.0	-0.8390909090909091	-923.0	-0.12959183673469388	127.0	94.75068878726401	40038.0	0.9565393542418391	0.27808569538154876	-0.00702965464752082	0.08747224569143154	1.5228313201593125E12	1.522831320177E12	23.95001865645018	25455.0	2941.40625	30848.0	3871.0622710622706	2642.0	0.0	0.0	
0.5945790902926332	0.9537842434416434	-0.023840112882472324	0.2995450984079056	0.1707918883491401	-123.0	-0.04279435577145492	0.0	-0.22684863906237945	114.0	0.4819277108433735	1237.0	9.759036144578314	2007.0	-0.1566265060240964	2060.0	0.4309090909090909	-474.0	-0.8381818181818181	-922.0	-0.12959183673469388	127.0	94.75068878726401	40038.0	0.9561339731044496	0.27939175888702056	-0.00698347777927681	0.08774566416423606	1.522831320167125E12	1.522831320181E12	23.95001865645018	25455.0	2949.21875	31104.0	3869.5970695970695	2641.0	0.0	0.0	
0.5973453822030678	0.9539179276789597	-0.02356620125387491	0.29914080532608844	0.032529057501246544	-128.0	0.03375656910506737	9.0	0.003298937435267938	99.0	0.46987951807228917	1237.0	9.759036144578314	2008.0	-0.1566265060240964	2060.0	0.43272727272727274	-476.0	-0.8318181818181818	-915.0	-0.1316326530612245	129.0	94.73886115995354	40034.0	0.9557278940790243	0.28069218183205713	-0.00693439996828504	0.08802275634580303	1.5228313201749375E12	1.522831320192E12	23.95001865645018	25455.0	2957.03125	31360.0	3876.9230769230767	2646.0	0.0	0.0	
0.6001002364251308	0.9540480742111681	-0.023299101652551595	0.29874642082566255	-0.12030534351145045	-132.0	0.09465648854961836	19.0	0.049083969465648906	96.0	0.5060240963855422	1235.0	9.783132530120483	2005.0	-0.14457831325301207	2059.0	0.43727272727272726	-481.0	-0.8254545454545454	-908.0	-0.1316326530612245	129.0	94.74477497206688	40036.0	0.9553216769812535	0.2819861632918066	-0.006886470882068582	0.08829990781695339	1.52283132018275E12	1.522831320199E12	23.95001865645018	25455.0	2964.84375	31616.0	3878.388278388278	2647.0	0.0	0.0	
0.6028515398424308	0.9541755977195651	-0.023074518136617525	0.29835632275732554	-0.13497398503664884	-120.0	-0.0890205461243402	20.0	0.0030382438950287273	99.0	0.5421686746987953	1237.0	9.759036144578314	2002.0	-0.0963855421686747	2055.0	0.43454545454545457	-478.0	-0.84	-924.0	-0.1326530612244898	130.0	94.74477497206688	40036.0	0.9549141744332561	0.28327755585291475	-0.006850408997931489	0.08857662057796466	1.5228313201905625E12	1.5228313202E12	23.95001865645018	25455.0	2972.65625	31872.0	3868.131868131868	2640.0	0.0	0.0	
0.6056144245708652	0.9542966088951136	-0.022859212004454278	0.29798563501924263	0.0030987831607589824	-124.0	-0.027511148061371074	11.0	0.24729801224397244	83.0	0.5783132530120483	1237.0	9.759036144578314	1999.0	-0.0963855421686747	2055.0	0.4354545454545454	-479.0	-0.8254545454545454	-908.0	-0.1316326530612245	129.0	94.74773187927997	40037.0	0.9545031380266	0.28457208001641565	-0.006816636931336664	0.08885957592432198	1.522831320198375E12	1.522831320218E12	23.95001865645018	25455.0	2980.46875	32128.0	3852.014652014652	2629.0	0.0	0.0	
0.6083775160669893	0.9544224806201546	-0.022646860943511916	0.29759846803415513	0.10995374722671383	-125.0	-0.012108449591997826	4.0	0.0018049862745835755	99.0	0.6024096385542169	1237.0	9.759036144578314	1997.0	-0.0963855421686747	2055.0	0.4318181818181818	-475.0	-0.83	-913.0	-0.12959183673469388	127.0	94.75068878726401	40038.0	0.954090249097217	0.2858679302055422	-0.006783171389014086	0.08913647762570066	1.5228313202061875E12	1.522831320219E12	23.95001865645018	25455.0	2988.28125	32384.0	3868.131868131868	2640.0	0.0	0.0	
0.6111309634944553	0.9545605508907623	-0.022425183484988256	0.297172114823702	0.09414758269720108	-121.0	-0.07311779673701531	5.0	-0.3035473731477323	119.0	0.6024096385542169	1235.0	9.783132530120483	1997.0	-0.13253012048192772	2058.0	0.4381818181818182	-482.0	-0.8263636363636364	-909.0	-0.12959183673469388	127.0	94.75068878726401	40038.0	0.953676989761751	0.2871628466714569	-0.006746224239698245	0.08939903326668804	1.522831320214E12	1.522831320221E12	23.95001865645018	25455.0	2996.09375	32640.0	3846.1538461538457	2625.0	0.0	0.0	
0.6138846333492821	0.9546928035727599	-0.022199594192153747	0.2967639277676538	0.09368832619623914	-127.0	0.018841928877304043	5.0	-0.16466207410165698	110.0	0.5903614457831325	1237.0	9.759036144578314	1998.0	-0.1566265060240964	2060.0	0.43636363636363634	-480.0	-0.8381818181818181	-922.0	-0.1316326530612245	129.0	94.753645696019	40039.0	0.9532618892548635	0.2884559248728306	-0.006707502612918975	0.08966582018085612	1.5228313202218125E12	1.52283132023E12	23.95001865645018	25455.0	3003.90625	32896.0	3857.8754578754574	2633.0	0.0	0.0	
0.6166333602826245	0.9548272973729023	-0.02195198785976286	0.2963493587314902	0.06269917735121923	-122.0	-0.05758541465945307	7.0	-0.11806121692729546	107.0	0.5180722891566265	1237.0	9.759036144578314	2004.0	-0.16867469879518074	2061.0	0.43727272727272726	-481.0	-0.8381818181818181	-922.0	-0.1316326530612245	129.0	94.76550677054608	40039.0	0.9528457316544187	0.2897472349570553	-0.006661443175826034	0.08992873110142256	1.522831320229625E12	1.522831320237E12	23.993182275667657	25462.0	3011.71875	33152.0	3854.945054945055	2631.0	0.0	0.0	
0.6193695660133655	0.9549682677674483	-0.021671041477502807	0.29591548374243143	-0.013939595087952146	-129.0	0.0495630047571634	12.0	-0.28542980418187835	118.0	0.49397590361445787	1237.0	9.759036144578314	2006.0	-0.13253012048192772	2058.0	0.4381818181818182	-482.0	-0.8209090909090909	-903.0	-0.1306122448979592	128.0	94.76550677054608	40039.0	0.9524296822375201	0.2910346295723673	-0.006604432567793246	0.09018273811028721	1.5228313202374375E12	1.52283132025E12	23.993182275667657	25462.0	3019.53125	33408.0	3879.8534798534797	2648.0	0.0	0.0	
0.6221070752628833	0.9551041416945332	-0.021417947498732458	0.29549509309443506	0.0013945977686434805	-123.0	-0.0422783323546683	11.0	-0.1771873165002935	111.0	0.5301204819277109	1238.0	9.74698795180723	2003.0	-0.10843373493975904	2056.0	0.44181818181818183	-486.0	-0.8254545454545454	-908.0	-0.1306122448979592	128.0	94.76550677054608	40039.0	0.952011650674632	0.29232087962626074	-0.006555215268473775	0.09043975600959693	1.52283132024525E12	1.522831320253E12	23.993182275667657	25462.0	3027.34375	33664.0	3878.388278388278	2647.0	0.0	0.0	
0.6248448816326364	0.9552442923592285	-0.0211537557637781	0.2950607743028655	0.07772380291464254	-127.0	0.018992658606961647	6.0	-0.2984769348770956	119.0	0.5180722891566265	1236.0	9.771084337349398	2004.0	-0.16867469879518074	2061.0	0.43727272727272726	-481.0	-0.8290909090909091	-912.0	-0.1316326530612245	129.0	94.76254958144824	40038.0	0.9515917898663278	0.2936083856858374	-0.0065019180231434374	0.09069126956866304	1.5228313202530625E12	1.522831320265E12	23.993182275667657	25462.0	3035.15625	33920.0	3871.0622710622706	2642.0	0.0	0.0	
0.6275784431322154	0.9553812479051583	-0.020848929569539588	0.2946387504843694	0.046819338422391686	-144.0	0.27844420210832427	8.0	-0.2817884405670665	118.0	0.46987951807228917	1237.0	9.759036144578314	2008.0	-0.24096385542168675	2067.0	0.43363636363636365	-477.0	-0.8381818181818181	-922.0	-0.12959183673469388	127.0	94.76254958144824	40038.0	0.9511708009979751	0.2948927917354474	-0.006435335693408531	0.09094468189981152	1.522831320260875E12	1.522831320267E12	23.993182275667657	25462.0	3042.96875	34176.0	3871.0622710622706	2642.0	0.0	0.0	
0.6303014348727651	0.9555241286754513	-0.02053214501509862	0.2941973326529282	-0.07553995875691896	-131.0	0.07865127889729033	16.0	-0.1888498968922977	112.0	0.42168674698795183	1235.0	9.783132530120483	2012.0	-0.2530120481927711	2068.0	0.45	-495.0	-0.8209090909090909	-903.0	-0.1306122448979592	128.0	94.76254958144824	40038.0	0.9507496733709132	0.29617403848573987	-0.006364138932133741	0.09118933735805823	1.5228313202686875E12	1.522831320311E12	23.993182275667657	25462.0	3050.78125	34432.0	3873.9926739926736	2644.0	0.0	0.0	
0.6330088914218658	0.9556574321180007	-0.020235746383902208	0.293784592866806	-0.28892409621201226	-133.0	0.1088146334437563	30.0	-0.17269191991934332	111.0	0.43373493975903615	1236.0	9.771084337349398	2011.0	-0.20481927710843376	2064.0	0.43363636363636365	-477.0	-0.8318181818181818	-915.0	-0.12959183673469388	127.0	94.76550677054608	40039.0	0.9503292010329963	0.2974450707103161	-0.006298306078880168	0.09143943850800151	1.5228313202765E12	1.522831320312E12	23.993182275667657	25462.0	3058.59375	34688.0	3875.457875457875	2645.0	0.0	0.0	
0.6357312615709635	0.955788123933772	-0.019961783540028526	0.2933778951200349	-0.058560011468300775	-135.0	0.13883811776511487	15.0	-0.08027810629681392	105.0	0.49397590361445787	1236.0	9.771084337349398	2006.0	-0.18072289156626506	2062.0	0.43363636363636365	-477.0	-0.8281818181818181	-911.0	-0.1316326530612245	129.0	94.76550677054608	40039.0	0.9499046566202581	0.2987218547040752	-0.00623885237005915	0.09169227652540604	1.5228313202843125E12	1.522831320315E12	23.993182275667657	25462.0	3066.40625	34944.0	3872.527472527472	2643.0	0.0	0.0	
0.6384536494862209	0.9559183166857974	-0.019683347006378152	0.29297224727816273	-0.012484839837340524	-139.0	0.19925804380395237	12.0	-0.1409716772490549	109.0	0.49397590361445787	1236.0	9.771084337349398	2006.0	-0.21686746987951808	2065.0	0.43363636363636365	-477.0	-0.84	-924.0	-0.1306122448979592	128.0	94.76254958144824	40038.0	0.94947834941308	0.2999982746266081	-0.006177274812834424	0.09194422490161146	1.522831320292125E12	1.522831320316E12	23.993182275667657	25462.0	3074.21875	35200.0	3863.7362637362635	2637.0	0.0	0.0	
0.6411761026625742	0.9560411813659585	-0.01942598446756994	0.29258826131587423	-0.058228297532398304	-135.0	0.13726255991478797	15.0	0.1192259897035328	92.0	0.5060240963855422	1236.0	9.771084337349398	2005.0	-0.24096385542168675	2067.0	0.43363636363636365	-477.0	-0.8390909090909091	-923.0	-0.1316326530612245	129.0	94.76550677054608	40039.0	0.9490502726834811	0.30127219557659984	-0.006121607631399162	0.09220178963486651	1.5228313202999375E12	1.522831320317E12	23.993182275667657	25462.0	3082.03125	35456.0	3876.9230769230767	2646.0	0.0	0.0	
0.6438761939412303	0.9561685723602721	-0.01914907993828407	0.2921899621274421	-0.27169918009612654	-145.0	0.2892988408255584	29.0	-0.1561351427763641	110.0	0.5180722891566265	1236.0	9.771084337349398	2004.0	-0.21686746987951808	2065.0	0.43363636363636365	-477.0	-0.8318181818181818	-915.0	-0.1306122448979592	128.0	94.76550677054608	40039.0	0.9486239751980136	0.3025371663399509	-0.006058877639373846	0.0924505633528672	1.52283132030775E12	1.522831320318E12	23.993182275667657	25462.0	3089.84375	35712.0	3879.8534798534797	2648.0	0.0	0.0	
0.6465665220759493	0.956293358713284	-0.018883691367010947	0.2917985919795115	-0.3925845147219194	-141.0	0.2268969641537975	37.0	-0.0790797481267808	105.0	0.5180722891566265	1238.0	9.74698795180723	2004.0	-0.16867469879518074	2061.0	0.4354545454545454	-479.0	-0.8354545454545454	-919.0	-0.13367346938775512	131.0	94.75663520556591	40036.0	0.9481974995248618	0.30379665814335344	-0.005998998401941667	0.09269899899084191	1.5228313203155625E12	1.522831320332E12	23.993182275667657	25462.0	3097.65625	35968.0	3871.0622710622706	2642.0	0.0	0.0	
0.6492449448031602	0.9564203622098196	-0.01861286532022195	0.29139947150776774	-0.4823867217592269	-139.0	0.19532180124658596	43.0	-0.24665592828629462	116.0	0.5060240963855422	1236.0	9.771084337349398	2005.0	-0.14457831325301207	2059.0	0.4354545454545454	-479.0	-0.8418181818181818	-926.0	-0.1316326530612245	129.0	94.76550677054608	40039.0	0.9477712067580829	0.305051229806691	-0.00593659198455501	0.09294215248939176	1.522831320323375E12	1.522831320334E12	23.993182275667657	25462.0	3105.46875	36224.0	3869.5970695970695	2641.0	0.0	0.0	
0.6519235859505254	0.9565415155245502	-0.018358094757408492	0.29101771326652087	-0.5107183938094739	-139.0	0.19442992087559696	45.0	-0.031789187493464356	102.0	0.5421686746987953	1237.0	9.759036144578314	2002.0	-0.14457831325301207	2059.0	0.43727272727272726	-481.0	-0.8254545454545454	-908.0	-0.1306122448979592	128.0	94.76550677054608	40039.0	0.9473431792048932	0.30630380238515087	-0.005878630605653835	0.0931897159592537	1.5228313203311875E12	1.522831320335E12	23.993182275667657	25462.0	3113.28125	36480.0	3868.131868131868	2640.0	0.0	0.0	
0.6545942711695305	0.9566712207500551	-0.018078941519641345	0.2906085464368321	-0.4778625954198474	-141.0	0.22408049965301866	43.0	-0.3675225537820958	124.0	0.5060240963855422	1235.0	9.783132530120483	2005.0	-0.12048192771084337	2057.0	0.4309090909090909	-474.0	-0.8290909090909091	-912.0	-0.12959183673469388	127.0	94.768463960415	40040.0	0.9469147311896944	0.3075552787216514	-0.005812105326745724	0.09342623731086949	1.522831320339E12	1.522831320346E12	23.993182275667657	25462.0	3121.09375	36736.0	3878.388278388278	2647.0	0.0	0.0	
