left thigh	left thigh	left thigh	left thigh	left thigh	left thigh	left thigh	left thigh	left thigh	left thigh	left thigh	left thigh	left thigh	left thigh	left thigh	left thigh	left thigh	left thigh	left thigh	left thigh	left thigh	left thigh	Annotation	Annotation	
Gyroscope X	Gyroscope X	Gyroscope Y	Gyroscope Y	Gyroscope Z	Gyroscope Z	Low Noise Accelerometer X	Low Noise Accelerometer X	Low Noise Accelerometer Y	Low Noise Accelerometer Y	Low Noise Accelerometer Z	Low Noise Accelerometer Z	Magnetometer X	Magnetometer X	Magnetometer Y	Magnetometer Y	Magnetometer Z	Magnetometer Z	SyncTimestamp	SystemTimestamp	Timestamp	Timestamp	Level	Pulse	
CAL	RAW	CAL	RAW	CAL	RAW	CAL	RAW	CAL	RAW	CAL	RAW	CAL	RAW	CAL	RAW	CAL	RAW	CAL	UNCAL	CAL	RAW	no format	no format	
deg/s	No Units	deg/s	No Units	deg/s	No Units	m/s^2	No Units	m/s^2	No Units	m/s^2	No Units	local flux	No Units	local flux	No Units	local flux	No Units	mSecs	mSecs	mSecs	No Units	no unit	no unit	
-0.3053435114503817	-18.0	0.2748091603053435	20.0	1.4351145038167938	-94.0	0.10843373493975904	1284.0	9.19277108433735	2038.0	-0.13253012048192772	2058.0	-0.4118181818181818	453.0	-0.02181818181818182	-24.0	-0.22346938775510206	219.0	1.5228926615972188E12	1.522892661609E12	1281.25	41984.0	0.0	0.0	
-0.549618320610687	-24.0	0.366412213740458	36.0	1.4351145038167938	-94.0	0.0963855421686747	1284.0	9.19277108433735	2039.0	-0.1566265060240964	2060.0	-0.4118181818181818	453.0	-0.02181818181818182	-24.0	-0.22346938775510206	219.0	1.522892661601125E12	1.52289266161E12	1285.15625	42112.0	0.0	0.0	
-0.4580152671755725	-21.0	0.32061068702290074	30.0	1.282442748091603	-84.0	0.10843373493975904	1286.0	9.168674698795181	2038.0	-0.1566265060240964	2060.0	-0.4218181818181818	464.0	-0.015454545454545455	-17.0	-0.2163265306122449	212.0	1.5228926616050313E12	1.522892661628E12	1289.0625	42240.0	0.0	0.0	
-0.5038167938931297	-28.0	0.42748091603053434	33.0	1.4961832061068703	-98.0	0.12048192771084337	1285.0	9.180722891566266	2037.0	-0.13253012048192772	2058.0	-0.41545454545454547	457.0	-0.007272727272727273	-8.0	-0.21938775510204084	215.0	1.5228926616089375E12	1.522892661629E12	1292.96875	42368.0	0.0	0.0	
-0.5038167938931297	-20.0	0.3053435114503817	33.0	1.450381679389313	-95.0	0.12048192771084337	1284.0	9.19277108433735	2037.0	-0.14457831325301207	2059.0	-0.41454545454545455	456.0	-0.025454545454545455	-28.0	-0.22448979591836737	220.0	1.5228926616128438E12	1.52289266163E12	1296.875	42496.0	0.0	0.0	
-0.7022900763358778	-16.0	0.24427480916030533	46.0	1.3740458015267174	-90.0	0.13253012048192772	1283.0	9.204819277108435	2036.0	-0.13253012048192772	2058.0	-0.4209090909090909	463.0	-0.019090909090909092	-21.0	-0.21530612244897962	211.0	1.52289266161675E12	1.52289266163E12	1300.78125	42624.0	0.0	0.0	
-0.7786259541984732	-27.0	0.41221374045801523	51.0	1.5267175572519083	-100.0	0.13253012048192772	1283.0	9.204819277108435	2036.0	-0.13253012048192772	2058.0	-0.41454545454545455	456.0	-0.01	-11.0	-0.21530612244897962	211.0	1.5228926616206563E12	1.522892661631E12	1304.6875	42752.0	0.0	0.0	
-0.7022900763358778	-27.0	0.41221374045801523	46.0	1.6030534351145038	-105.0	0.13253012048192772	1284.0	9.19277108433735	2036.0	-0.10843373493975904	2056.0	-0.41454545454545455	456.0	-0.022727272727272728	-25.0	-0.21530612244897962	211.0	1.5228926616245625E12	1.522892661632E12	1308.59375	42880.0	0.0	0.0	
-0.7022900763358778	-19.0	0.2900763358778626	46.0	1.5572519083969465	-102.0	0.12048192771084337	1283.0	9.204819277108435	2037.0	-0.08433734939759037	2054.0	-0.41454545454545455	456.0	-0.022727272727272728	-25.0	-0.2163265306122449	212.0	1.5228926616284688E12	1.522892661641E12	1312.5	43008.0	0.0	0.0	
-0.732824427480916	-30.0	0.4580152671755725	48.0	1.450381679389313	-95.0	0.13253012048192772	1285.0	9.180722891566266	2036.0	-0.060240963855421686	2052.0	-0.4209090909090909	463.0	-0.01818181818181818	-20.0	-0.21734693877551023	213.0	1.522892661632375E12	1.522892661642E12	1316.40625	43136.0	0.0	0.0	
-0.6717557251908397	-24.0	0.366412213740458	44.0	1.4961832061068703	-98.0	0.12048192771084337	1285.0	9.180722891566266	2037.0	-0.03614457831325302	2050.0	-0.4209090909090909	463.0	-0.02	-22.0	-0.22346938775510206	219.0	1.5228926616362813E12	1.522892661648E12	1320.3125	43264.0	0.0	0.0	
-0.5954198473282443	-14.0	0.21374045801526717	39.0	1.2061068702290076	-79.0	0.1566265060240964	1283.0	9.204819277108435	2034.0	-0.03614457831325302	2050.0	-0.4163636363636364	458.0	-0.026363636363636363	-29.0	-0.22040816326530616	216.0	1.5228926616401875E12	1.522892661657E12	1324.21875	43392.0	0.0	0.0	
-0.4580152671755725	-25.0	0.38167938931297707	30.0	1.3282442748091603	-87.0	0.1566265060240964	1284.0	9.19277108433735	2034.0	-0.024096385542168676	2049.0	-0.4209090909090909	463.0	-0.016363636363636365	-18.0	-0.21836734693877552	214.0	1.5228926616440938E12	1.522892661658E12	1328.125	43520.0	0.0	0.0	
-0.7633587786259541	-24.0	0.366412213740458	50.0	1.297709923664122	-85.0	0.1566265060240964	1283.0	9.204819277108435	2034.0	-0.03614457831325302	2050.0	-0.4218181818181818	464.0	-0.019090909090909092	-21.0	-0.22244897959183677	218.0	1.522892661648E12	1.522892661658E12	1332.03125	43648.0	0.0	0.0	
-0.7175572519083969	-25.0	0.38167938931297707	47.0	1.3129770992366412	-86.0	0.10843373493975904	1284.0	9.19277108433735	2038.0	-0.04819277108433735	2051.0	-0.4218181818181818	464.0	-0.019090909090909092	-21.0	-0.22244897959183677	218.0	1.5228926616519063E12	1.522892661692E12	1335.9375	43776.0	0.0	0.0	
-0.366412213740458	-18.0	0.2748091603053435	24.0	1.1908396946564885	-78.0	0.0963855421686747	1284.0	9.19277108433735	2039.0	-0.04819277108433735	2051.0	-0.4172727272727273	459.0	-0.008181818181818182	-9.0	-0.22346938775510206	219.0	1.5228926616558125E12	1.522892661692E12	1339.84375	43904.0	0.0	0.0	
-0.7175572519083969	-18.0	0.2748091603053435	47.0	1.4198473282442747	-93.0	0.10843373493975904	1285.0	9.180722891566266	2038.0	-0.08433734939759037	2054.0	-0.4209090909090909	463.0	-0.019090909090909092	-21.0	-0.21734693877551023	213.0	1.5228926616597188E12	1.522892661693E12	1343.75	44032.0	0.0	0.0	
-0.549618320610687	-20.0	0.3053435114503817	36.0	1.2519083969465647	-82.0	0.13253012048192772	1286.0	9.168674698795181	2036.0	-0.0963855421686747	2055.0	-0.41363636363636364	455.0	-0.016363636363636365	-18.0	-0.2142857142857143	210.0	1.522892661663625E12	1.522892661694E12	1347.65625	44160.0	0.0	0.0	
-0.5038167938931297	-3.0	0.04580152671755725	33.0	1.3282442748091603	-87.0	0.14457831325301207	1285.0	9.180722891566266	2035.0	-0.08433734939759037	2054.0	-0.41363636363636364	455.0	-0.02	-22.0	-0.22448979591836737	220.0	1.5228926616675313E12	1.522892661695E12	1351.5625	44288.0	0.0	0.0	
-0.549618320610687	-15.0	0.22900763358778625	36.0	1.282442748091603	-84.0	0.16867469879518074	1285.0	9.180722891566266	2033.0	-0.12048192771084337	2057.0	-0.4127272727272727	454.0	-0.02181818181818182	-24.0	-0.22040816326530616	216.0	1.5228926616714375E12	1.522892661696E12	1355.46875	44416.0	0.0	0.0	
-0.7786259541984732	-15.0	0.22900763358778625	51.0	1.4351145038167938	-94.0	0.16867469879518074	1283.0	9.204819277108435	2033.0	-0.10843373493975904	2056.0	-0.41818181818181815	460.0	-0.026363636363636363	-29.0	-0.22142857142857145	217.0	1.5228926616753438E12	1.522892661698E12	1359.375	44544.0	0.0	0.0	
-0.7938931297709924	-18.0	0.2748091603053435	52.0	1.2213740458015268	-80.0	0.1927710843373494	1284.0	9.19277108433735	2031.0	-0.12048192771084337	2057.0	-0.41818181818181815	460.0	-0.026363636363636363	-29.0	-0.22142857142857145	217.0	1.52289266167925E12	1.522892661699E12	1363.28125	44672.0	0.0	0.0	
-0.6717557251908397	-20.0	0.3053435114503817	44.0	1.1908396946564885	-78.0	0.18072289156626506	1284.0	9.19277108433735	2032.0	-0.0963855421686747	2055.0	-0.41454545454545455	456.0	-0.012727272727272728	-14.0	-0.22040816326530616	216.0	1.5228926616831563E12	1.522892661699E12	1367.1875	44800.0	0.0	0.0	
-0.8854961832061068	-17.0	0.2595419847328244	58.0	1.083969465648855	-71.0	0.16867469879518074	1284.0	9.19277108433735	2033.0	-0.10843373493975904	2056.0	-0.41909090909090907	461.0	-0.02	-22.0	-0.22040816326530616	216.0	1.5228926616870625E12	1.522892661702E12	1371.09375	44928.0	0.0	0.0	
-0.6412213740458015	-24.0	0.366412213740458	42.0	1.2213740458015268	-80.0	0.14457831325301207	1284.0	9.19277108433735	2035.0	-0.12048192771084337	2057.0	-0.42	462.0	-0.02727272727272727	-30.0	-0.22244897959183677	218.0	1.5228926616909688E12	1.522892661702E12	1375.0	45056.0	0.0	0.0	
-0.7938931297709924	-18.0	0.2748091603053435	52.0	1.0687022900763359	-70.0	0.16867469879518074	1286.0	9.168674698795181	2033.0	-0.13253012048192772	2058.0	-0.4127272727272727	454.0	-0.014545454545454545	-16.0	-0.22040816326530616	216.0	1.522892661694875E12	1.522892661704E12	1378.90625	45184.0	0.0	0.0	
-0.6717557251908397	-27.0	0.41221374045801523	44.0	1.282442748091603	-84.0	0.18072289156626506	1284.0	9.19277108433735	2032.0	-0.1566265060240964	2060.0	-0.42272727272727273	465.0	-0.022727272727272728	-25.0	-0.22040816326530616	216.0	1.5228926616987813E12	1.522892661706E12	1382.8125	45312.0	0.0	0.0	
-0.9465648854961831	-39.0	0.5954198473282443	62.0	1.0381679389312977	-68.0	0.21686746987951808	1285.0	9.180722891566266	2029.0	-0.16867469879518074	2061.0	-0.41909090909090907	461.0	-0.026363636363636363	-29.0	-0.22346938775510206	219.0	1.5228926617026875E12	1.522892661706E12	1386.71875	45440.0	0.0	0.0	
-0.8854961832061068	-40.0	0.6106870229007634	58.0	1.1908396946564885	-78.0	0.24096385542168675	1284.0	9.19277108433735	2027.0	-0.18072289156626506	2062.0	-0.41909090909090907	461.0	-0.026363636363636363	-29.0	-0.22346938775510206	219.0	1.5228926617065938E12	1.522892661707E12	1390.625	45568.0	0.0	0.0	
-0.8854961832061068	-38.0	0.5801526717557252	58.0	1.1450381679389312	-75.0	0.2530120481927711	1284.0	9.19277108433735	2026.0	-0.1927710843373494	2063.0	-0.4163636363636364	458.0	-0.02090909090909091	-23.0	-0.2163265306122449	212.0	1.5228926617105E12	1.522892661721E12	1394.53125	45696.0	0.0	0.0	
-0.916030534351145	-50.0	0.7633587786259541	60.0	1.2366412213740459	-81.0	0.2530120481927711	1283.0	9.204819277108435	2026.0	-0.1927710843373494	2063.0	-0.4109090909090909	452.0	-0.022727272727272728	-25.0	-0.22040816326530616	216.0	1.5228926617144063E12	1.522892661722E12	1398.4375	45824.0	0.0	0.0	
-0.8244274809160305	-49.0	0.7480916030534351	54.0	0.9770992366412213	-64.0	0.21686746987951808	1283.0	9.204819277108435	2029.0	-0.20481927710843376	2064.0	-0.41545454545454547	457.0	-0.02	-22.0	-0.21938775510204084	215.0	1.5228926617183125E12	1.522892661723E12	1402.34375	45952.0	0.0	0.0	
-0.916030534351145	-33.0	0.5038167938931297	60.0	0.8702290076335878	-57.0	0.18072289156626506	1283.0	9.204819277108435	2032.0	-0.20481927710843376	2064.0	-0.4163636363636364	458.0	-0.014545454545454545	-16.0	-0.22040816326530616	216.0	1.5228926617222188E12	1.52289266173E12	1406.25	46080.0	0.0	0.0	
-1.2213740458015268	-52.0	0.7938931297709924	80.0	0.8702290076335878	-57.0	0.1566265060240964	1284.0	9.19277108433735	2034.0	-0.1927710843373494	2063.0	-0.4127272727272727	454.0	-0.004545454545454545	-5.0	-0.2163265306122449	212.0	1.522892661726125E12	1.522892661731E12	1410.15625	46208.0	0.0	0.0	
-0.9007633587786259	-49.0	0.7480916030534351	59.0	0.8396946564885496	-55.0	0.14457831325301207	1284.0	9.19277108433735	2035.0	-0.16867469879518074	2061.0	-0.42	462.0	-0.02727272727272727	-30.0	-0.22448979591836737	220.0	1.5228926617300313E12	1.522892661731E12	1414.0625	46336.0	0.0	0.0	
-1.0076335877862594	-63.0	0.9618320610687022	66.0	0.7786259541984732	-51.0	0.12048192771084337	1284.0	9.19277108433735	2037.0	-0.14457831325301207	2059.0	-0.42	462.0	-0.02727272727272727	-30.0	-0.22448979591836737	220.0	1.5228926617339375E12	1.522892661748E12	1417.96875	46464.0	0.0	0.0	
-0.9770992366412213	-56.0	0.8549618320610687	64.0	0.8244274809160305	-54.0	0.0963855421686747	1284.0	9.19277108433735	2039.0	-0.13253012048192772	2058.0	-0.4081818181818182	449.0	-0.02090909090909091	-23.0	-0.22142857142857145	217.0	1.5228926617378438E12	1.522892661749E12	1421.875	46592.0	0.0	0.0	
-0.9770992366412213	-46.0	0.7022900763358778	64.0	0.9618320610687022	-63.0	0.0963855421686747	1284.0	9.19277108433735	2039.0	-0.12048192771084337	2057.0	-0.41545454545454547	457.0	-0.02727272727272727	-30.0	-0.22244897959183677	218.0	1.52289266174175E12	1.52289266175E12	1425.78125	46720.0	0.0	0.0	
-1.083969465648855	-43.0	0.6564885496183206	71.0	0.8549618320610687	-56.0	0.08433734939759037	1285.0	9.180722891566266	2040.0	-0.10843373493975904	2056.0	-0.41818181818181815	460.0	-0.01	-11.0	-0.21734693877551023	213.0	1.5228926617456563E12	1.522892661756E12	1429.6875	46848.0	0.0	0.0	
-1.0076335877862594	-48.0	0.732824427480916	66.0	0.7938931297709924	-52.0	0.03614457831325302	1284.0	9.19277108433735	2044.0	-0.0963855421686747	2055.0	-0.41545454545454547	457.0	-0.014545454545454545	-16.0	-0.21734693877551023	213.0	1.5228926617495625E12	1.522892661758E12	1433.59375	46976.0	0.0	0.0	
-1.0076335877862594	-51.0	0.7786259541984732	66.0	0.7938931297709924	-52.0	0.012048192771084338	1285.0	9.180722891566266	2046.0	-0.0963855421686747	2055.0	-0.41818181818181815	460.0	-0.03090909090909091	-34.0	-0.21938775510204084	215.0	1.5228926617534688E12	1.522892661759E12	1437.5	47104.0	0.0	0.0	
-1.297709923664122	-51.0	0.7786259541984732	85.0	1.083969465648855	-71.0	0.0	1284.0	9.19277108433735	2047.0	-0.0963855421686747	2055.0	-0.4109090909090909	452.0	-0.026363636363636363	-29.0	-0.22346938775510206	219.0	1.522892661757375E12	1.52289266177E12	1441.40625	47232.0	0.0	0.0	
-1.129770992366412	-44.0	0.6717557251908397	74.0	0.8091603053435115	-53.0	-0.012048192771084338	1284.0	9.19277108433735	2048.0	-0.08433734939759037	2054.0	-0.4109090909090909	452.0	-0.026363636363636363	-29.0	-0.22346938775510206	219.0	1.5228926617612813E12	1.522892661771E12	1445.3125	47360.0	0.0	0.0	
-1.083969465648855	-44.0	0.6717557251908397	71.0	0.6564885496183206	-43.0	-0.012048192771084338	1284.0	9.19277108433735	2048.0	-0.060240963855421686	2052.0	-0.41818181818181815	460.0	-0.02	-22.0	-0.22346938775510206	219.0	1.5228926617651875E12	1.522892661772E12	1449.21875	47488.0	0.0	0.0	
-1.1603053435114503	-48.0	0.732824427480916	76.0	0.9312977099236641	-61.0	-0.024096385542168676	1285.0	9.180722891566266	2049.0	-0.04819277108433735	2051.0	-0.41818181818181815	460.0	-0.026363636363636363	-29.0	-0.21938775510204084	215.0	1.5228926617690938E12	1.522892661779E12	1453.125	47616.0	0.0	0.0	
-1.1908396946564885	-36.0	0.549618320610687	78.0	0.9312977099236641	-61.0	0.012048192771084338	1284.0	9.19277108433735	2046.0	-0.060240963855421686	2052.0	-0.41454545454545455	456.0	-0.02727272727272727	-30.0	-0.22653061224489798	222.0	1.522892661773E12	1.52289266178E12	1457.03125	47744.0	0.0	0.0	
-1.2213740458015268	-47.0	0.7175572519083969	80.0	0.8854961832061068	-58.0	0.024096385542168676	1284.0	9.19277108433735	2045.0	-0.04819277108433735	2051.0	-0.4172727272727273	459.0	-0.011818181818181818	-13.0	-0.22142857142857145	217.0	1.5228926617769063E12	1.522892661781E12	1460.9375	47872.0	0.0	0.0	
-1.297709923664122	-48.0	0.732824427480916	85.0	0.9618320610687022	-63.0	0.03614457831325302	1285.0	9.180722891566266	2044.0	-0.012048192771084338	2048.0	-0.41909090909090907	461.0	-0.025454545454545455	-28.0	-0.22142857142857145	217.0	1.5228926617808125E12	1.52289266179E12	1464.84375	48000.0	0.0	0.0	
-1.1450381679389312	-52.0	0.7938931297709924	75.0	0.8549618320610687	-56.0	0.04819277108433735	1285.0	9.180722891566266	2043.0	-0.012048192771084338	2048.0	-0.41909090909090907	461.0	-0.025454545454545455	-28.0	-0.22142857142857145	217.0	1.5228926617847188E12	1.522892661791E12	1468.75	48128.0	0.0	0.0	
-0.9770992366412213	-54.0	0.8244274809160305	64.0	0.9465648854961831	-62.0	0.04819277108433735	1283.0	9.204819277108435	2043.0	0.012048192771084338	2046.0	-0.41454545454545455	456.0	-0.025454545454545455	-28.0	-0.22244897959183677	218.0	1.522892661788625E12	1.522892661792E12	1472.65625	48256.0	0.0	0.0	
-1.1908396946564885	-45.0	0.6870229007633587	78.0	0.9312977099236641	-61.0	0.060240963855421686	1285.0	9.180722891566266	2042.0	0.03614457831325302	2044.0	-0.41818181818181815	460.0	-0.01090909090909091	-12.0	-0.22142857142857145	217.0	1.5228926617925313E12	1.522892661842E12	1476.5625	48384.0	0.0	0.0	
-0.9923664122137404	-36.0	0.549618320610687	65.0	0.9312977099236641	-61.0	0.03614457831325302	1285.0	9.180722891566266	2044.0	0.04819277108433735	2043.0	-0.42	462.0	-0.02727272727272727	-30.0	-0.22142857142857145	217.0	1.5228926617964375E12	1.522892661843E12	1480.46875	48512.0	0.0	0.0	
-1.0687022900763359	-42.0	0.6412213740458015	70.0	0.8549618320610687	-56.0	0.03614457831325302	1286.0	9.168674698795181	2044.0	0.07228915662650603	2041.0	-0.41363636363636364	455.0	-0.014545454545454545	-16.0	-0.22142857142857145	217.0	1.5228926618003438E12	1.522892661845E12	1484.375	48640.0	0.0	0.0	
-1.083969465648855	-45.0	0.6870229007633587	71.0	1.0381679389312977	-68.0	0.024096385542168676	1286.0	9.168674698795181	2045.0	0.08433734939759037	2040.0	-0.4172727272727273	459.0	-0.016363636363636365	-18.0	-0.2142857142857143	210.0	1.52289266180425E12	1.522892661846E12	1488.28125	48768.0	0.0	0.0	
-1.099236641221374	-38.0	0.5801526717557252	72.0	0.8854961832061068	-58.0	0.012048192771084338	1283.0	9.204819277108435	2046.0	0.08433734939759037	2040.0	-0.4209090909090909	463.0	-0.028181818181818183	-31.0	-0.22040816326530616	216.0	1.5228926618081563E12	1.522892661847E12	1492.1875	48896.0	0.0	0.0	
-0.9770992366412213	-35.0	0.5343511450381679	64.0	0.9007633587786259	-59.0	0.0	1284.0	9.19277108433735	2047.0	0.08433734939759037	2040.0	-0.4209090909090909	463.0	-0.028181818181818183	-31.0	-0.22040816326530616	216.0	1.5228926618120625E12	1.522892661848E12	1496.09375	49024.0	0.0	0.0	
-1.114503816793893	-44.0	0.6717557251908397	73.0	0.8854961832061068	-58.0	-0.04819277108433735	1284.0	9.19277108433735	2051.0	0.08433734939759037	2040.0	-0.4109090909090909	452.0	-0.02727272727272727	-30.0	-0.22040816326530616	216.0	1.5228926618159688E12	1.52289266185E12	1500.0	49152.0	0.0	0.0	
-0.8244274809160305	-34.0	0.5190839694656488	54.0	0.9770992366412213	-64.0	-0.0963855421686747	1284.0	9.19277108433735	2055.0	0.08433734939759037	2040.0	-0.41818181818181815	460.0	-0.012727272727272728	-14.0	-0.21938775510204084	215.0	1.522892661819875E12	1.52289266185E12	1503.90625	49280.0	0.0	0.0	
-1.0229007633587786	-36.0	0.549618320610687	67.0	0.9465648854961831	-62.0	-0.13253012048192772	1284.0	9.19277108433735	2058.0	0.04819277108433735	2043.0	-0.4163636363636364	458.0	-0.02727272727272727	-30.0	-0.22448979591836737	220.0	1.5228926618237813E12	1.522892661852E12	1507.8125	49408.0	0.0	0.0	
-1.0534351145038168	-37.0	0.564885496183206	69.0	1.0076335877862594	-66.0	-0.16867469879518074	1285.0	9.180722891566266	2061.0	0.03614457831325302	2044.0	-0.4109090909090909	452.0	-0.007272727272727273	-8.0	-0.21938775510204084	215.0	1.5228926618276875E12	1.52289266186E12	1511.71875	49536.0	0.0	0.0	
-0.8854961832061068	-47.0	0.7175572519083969	58.0	1.0534351145038168	-69.0	-0.24096385542168675	1285.0	9.180722891566266	2067.0	0.024096385542168676	2045.0	-0.4209090909090909	463.0	-0.016363636363636365	-18.0	-0.21734693877551023	213.0	1.5228926618315938E12	1.522892661861E12	1515.625	49664.0	0.0	0.0	
-1.083969465648855	-33.0	0.5038167938931297	71.0	1.0229007633587786	-67.0	-0.28915662650602414	1284.0	9.19277108433735	2071.0	0.0	2047.0	-0.41363636363636364	455.0	-0.023636363636363636	-26.0	-0.22142857142857145	217.0	1.5228926618355E12	1.52289266187E12	1519.53125	49792.0	0.0	0.0	
-0.9465648854961831	-32.0	0.48854961832061067	62.0	1.1450381679389312	-75.0	-0.3253012048192771	1284.0	9.19277108433735	2074.0	0.012048192771084338	2046.0	-0.41363636363636364	455.0	-0.023636363636363636	-26.0	-0.22142857142857145	217.0	1.5228926618394063E12	1.522892661871E12	1523.4375	49920.0	0.0	0.0	
-1.0534351145038168	-33.0	0.5038167938931297	69.0	1.114503816793893	-73.0	-0.3614457831325301	1283.0	9.204819277108435	2077.0	0.012048192771084338	2046.0	-0.4109090909090909	452.0	-0.006363636363636364	-7.0	-0.2163265306122449	212.0	1.5228926618433125E12	1.522892661872E12	1527.34375	50048.0	0.0	0.0	
-0.9312977099236641	-23.0	0.3511450381679389	61.0	1.3435114503816794	-88.0	-0.3734939759036145	1284.0	9.19277108433735	2078.0	0.012048192771084338	2046.0	-0.41909090909090907	461.0	-0.015454545454545455	-17.0	-0.21734693877551023	213.0	1.5228926618472188E12	1.522892661873E12	1531.25	50176.0	0.0	0.0	
-0.9007633587786259	-25.0	0.38167938931297707	59.0	1.4351145038167938	-94.0	-0.28915662650602414	1285.0	9.180722891566266	2071.0	0.03614457831325302	2044.0	-0.41545454545454547	457.0	-0.026363636363636363	-29.0	-0.22448979591836737	220.0	1.522892661851125E12	1.522892661874E12	1535.15625	50304.0	0.0	0.0	
-1.0381679389312977	-13.0	0.1984732824427481	68.0	1.618320610687023	-106.0	-0.18072289156626506	1285.0	9.180722891566266	2062.0	0.024096385542168676	2045.0	-0.41454545454545455	456.0	-0.024545454545454544	-27.0	-0.21938775510204084	215.0	1.5228926618550313E12	1.522892661874E12	1539.0625	50432.0	0.0	0.0	
-0.8396946564885496	-10.0	0.15267175572519084	55.0	1.6793893129770991	-110.0	-0.024096385542168676	1286.0	9.168674698795181	2049.0	0.012048192771084338	2046.0	-0.4118181818181818	453.0	-0.025454545454545455	-28.0	-0.22040816326530616	216.0	1.5228926618589375E12	1.522892661875E12	1542.96875	50560.0	0.0	0.0	
-0.6717557251908397	-16.0	0.24427480916030533	44.0	1.7099236641221374	-112.0	0.1566265060240964	1284.0	9.19277108433735	2034.0	0.0	2047.0	-0.41545454545454547	457.0	-0.008181818181818182	-9.0	-0.21734693877551023	213.0	1.5228926618628438E12	1.522892661884E12	1546.875	50688.0	0.0	0.0	
-0.7938931297709924	-9.0	0.13740458015267176	52.0	1.618320610687023	-106.0	0.22891566265060243	1283.0	9.204819277108435	2028.0	-0.03614457831325302	2050.0	-0.41545454545454547	457.0	-0.008181818181818182	-9.0	-0.21734693877551023	213.0	1.52289266186675E12	1.522892661884E12	1550.78125	50816.0	0.0	0.0	
-0.7938931297709924	-23.0	0.3511450381679389	52.0	1.5572519083969465	-102.0	0.24096385542168675	1284.0	9.19277108433735	2027.0	-0.04819277108433735	2051.0	-0.4127272727272727	454.0	-0.01818181818181818	-20.0	-0.22142857142857145	217.0	1.5228926618706563E12	1.522892661884E12	1554.6875	50944.0	0.0	0.0	
-0.7938931297709924	-41.0	0.6259541984732824	52.0	1.3282442748091603	-87.0	0.22891566265060243	1283.0	9.204819277108435	2028.0	-0.024096385542168676	2049.0	-0.42	462.0	-0.017272727272727273	-19.0	-0.21938775510204084	215.0	1.5228926618745625E12	1.522892661884E12	1558.59375	51072.0	0.0	0.0	
-0.9923664122137404	-40.0	0.6106870229007634	65.0	1.282442748091603	-84.0	0.1927710843373494	1283.0	9.204819277108435	2031.0	-0.024096385542168676	2049.0	-0.4218181818181818	464.0	-0.02090909090909091	-23.0	-0.22551020408163266	221.0	1.5228926618784688E12	1.522892661892E12	1562.5	51200.0	0.0	0.0	
-1.0381679389312977	-59.0	0.9007633587786259	68.0	1.4351145038167938	-94.0	0.18072289156626506	1283.0	9.204819277108435	2032.0	-0.024096385542168676	2049.0	-0.41818181818181815	460.0	-0.016363636363636365	-18.0	-0.22448979591836737	220.0	1.522892661882375E12	1.522892661892E12	1566.40625	51328.0	0.0	0.0	
-0.9770992366412213	-71.0	1.083969465648855	64.0	1.2213740458015268	-80.0	0.1566265060240964	1284.0	9.19277108433735	2034.0	-0.03614457831325302	2050.0	-0.42	462.0	-0.017272727272727273	-19.0	-0.21938775510204084	215.0	1.5228926618862813E12	1.522892661892E12	1570.3125	51456.0	0.0	0.0	
-0.7175572519083969	-58.0	0.8854961832061068	47.0	1.2519083969465647	-82.0	0.12048192771084337	1284.0	9.19277108433735	2037.0	-0.04819277108433735	2051.0	-0.41454545454545455	456.0	-0.00909090909090909	-10.0	-0.2163265306122449	212.0	1.5228926618901875E12	1.522892661901E12	1574.21875	51584.0	0.0	0.0	
-0.9618320610687022	-71.0	1.083969465648855	63.0	1.3129770992366412	-86.0	0.08433734939759037	1283.0	9.204819277108435	2040.0	-0.08433734939759037	2054.0	-0.41454545454545455	456.0	-0.00909090909090909	-10.0	-0.2163265306122449	212.0	1.5228926618940938E12	1.522892661901E12	1578.125	51712.0	0.0	0.0	
-0.7022900763358778	-71.0	1.083969465648855	46.0	1.2061068702290076	-79.0	0.03614457831325302	1284.0	9.19277108433735	2044.0	-0.13253012048192772	2058.0	-0.4127272727272727	454.0	-0.017272727272727273	-19.0	-0.22142857142857145	217.0	1.522892661898E12	1.522892661901E12	1582.03125	51840.0	0.0	0.0	
-0.8244274809160305	-62.0	0.9465648854961831	54.0	1.2671755725190839	-83.0	0.0	1284.0	9.19277108433735	2047.0	-0.16867469879518074	2061.0	-0.4209090909090909	463.0	-0.02090909090909091	-23.0	-0.21734693877551023	213.0	1.5228926619019063E12	1.522892661912E12	1585.9375	51968.0	0.0	0.0	
-0.9312977099236641	-58.0	0.8854961832061068	61.0	1.083969465648855	-71.0	-0.060240963855421686	1286.0	9.168674698795181	2052.0	-0.18072289156626506	2062.0	-0.41909090909090907	461.0	-0.026363636363636363	-29.0	-0.22551020408163266	221.0	1.5228926619058125E12	1.522892661913E12	1589.84375	52096.0	0.0	0.0	
-1.1908396946564885	-48.0	0.732824427480916	78.0	1.0687022900763359	-70.0	-0.13253012048192772	1284.0	9.19277108433735	2058.0	-0.1566265060240964	2060.0	-0.41363636363636364	455.0	-0.014545454545454545	-16.0	-0.22142857142857145	217.0	1.5228926619097188E12	1.522892661916E12	1593.75	52224.0	0.0	0.0	
-1.0229007633587786	-47.0	0.7175572519083969	67.0	1.1450381679389312	-75.0	-0.20481927710843376	1285.0	9.180722891566266	2064.0	-0.12048192771084337	2057.0	-0.4127272727272727	454.0	-0.024545454545454544	-27.0	-0.22040816326530616	216.0	1.522892661913625E12	1.522892661927E12	1597.65625	52352.0	0.0	0.0	
-1.1450381679389312	-48.0	0.732824427480916	75.0	1.2061068702290076	-79.0	-0.20481927710843376	1284.0	9.19277108433735	2064.0	-0.08433734939759037	2054.0	-0.41909090909090907	461.0	-0.025454545454545455	-28.0	-0.22244897959183677	218.0	1.5228926619175313E12	1.522892661927E12	1601.5625	52480.0	0.0	0.0	
-1.1755725190839694	-38.0	0.5801526717557252	77.0	1.2671755725190839	-83.0	-0.18072289156626506	1286.0	9.168674698795181	2062.0	-0.04819277108433735	2051.0	-0.41909090909090907	461.0	-0.025454545454545455	-28.0	-0.22244897959183677	218.0	1.5228926619214375E12	1.522892661928E12	1605.46875	52608.0	0.0	0.0	
-1.2213740458015268	-49.0	0.7480916030534351	80.0	1.450381679389313	-95.0	-0.1566265060240964	1283.0	9.204819277108435	2060.0	0.0	2047.0	-0.4172727272727273	459.0	-0.01	-11.0	-0.22551020408163266	221.0	1.5228926619253438E12	1.522892661935E12	1609.375	52736.0	0.0	0.0	
-1.2061068702290076	-60.0	0.916030534351145	79.0	1.4961832061068703	-98.0	-0.16867469879518074	1282.0	9.216867469879519	2061.0	0.012048192771084338	2046.0	-0.41545454545454547	457.0	-0.02181818181818182	-24.0	-0.21938775510204084	215.0	1.52289266192925E12	1.522892661937E12	1613.28125	52864.0	0.0	0.0	
-1.1755725190839694	-58.0	0.8854961832061068	77.0	1.5267175572519083	-100.0	-0.1566265060240964	1284.0	9.19277108433735	2060.0	0.10843373493975904	2038.0	-0.42	462.0	-0.007272727272727273	-8.0	-0.21938775510204084	215.0	1.5228926619331563E12	1.522892661938E12	1617.1875	52992.0	0.0	0.0	
-1.1755725190839694	-54.0	0.8244274809160305	77.0	1.7251908396946565	-113.0	-0.1566265060240964	1283.0	9.204819277108435	2060.0	0.14457831325301207	2035.0	-0.41454545454545455	456.0	-0.011818181818181818	-13.0	-0.22346938775510206	219.0	1.5228926619370625E12	1.522892661948E12	1621.09375	53120.0	0.0	0.0	
-1.114503816793893	-50.0	0.7633587786259541	73.0	1.5877862595419847	-104.0	-0.0963855421686747	1283.0	9.204819277108435	2055.0	0.1927710843373494	2031.0	-0.4118181818181818	453.0	-0.01090909090909091	-12.0	-0.22244897959183677	218.0	1.5228926619409688E12	1.522892661949E12	1625.0	53248.0	0.0	0.0	
-0.9770992366412213	-32.0	0.48854961832061067	64.0	1.8473282442748091	-121.0	0.0	1285.0	9.180722891566266	2047.0	0.22891566265060243	2028.0	-0.4118181818181818	453.0	-0.026363636363636363	-29.0	-0.22142857142857145	217.0	1.522892661944875E12	1.52289266195E12	1628.90625	53376.0	0.0	0.0	
-0.7022900763358778	-38.0	0.5801526717557252	46.0	1.5419847328244274	-101.0	0.08433734939759037	1285.0	9.180722891566266	2040.0	0.22891566265060243	2028.0	-0.41909090909090907	461.0	-0.026363636363636363	-29.0	-0.22142857142857145	217.0	1.5228926619487813E12	1.52289266196E12	1632.8125	53504.0	0.0	0.0	
-0.9007633587786259	-31.0	0.47328244274809156	59.0	1.618320610687023	-106.0	0.13253012048192772	1286.0	9.168674698795181	2036.0	0.20481927710843376	2030.0	-0.4163636363636364	458.0	-0.017272727272727273	-19.0	-0.22448979591836737	220.0	1.5228926619526875E12	1.522892661962E12	1636.71875	53632.0	0.0	0.0	
-0.6106870229007634	-19.0	0.2900763358778626	40.0	1.465648854961832	-96.0	0.1927710843373494	1287.0	9.156626506024097	2031.0	0.14457831325301207	2035.0	-0.41818181818181815	460.0	-0.028181818181818183	-31.0	-0.21938775510204084	215.0	1.5228926619565938E12	1.522892661963E12	1640.625	53760.0	0.0	0.0	
-0.8244274809160305	-17.0	0.2595419847328244	54.0	1.5114503816793892	-99.0	0.20481927710843376	1284.0	9.19277108433735	2030.0	0.08433734939759037	2040.0	-0.4209090909090909	463.0	-0.025454545454545455	-28.0	-0.22448979591836737	220.0	1.5228926619605E12	1.522892661993E12	1644.53125	53888.0	0.0	0.0	
-0.6564885496183206	-33.0	0.5038167938931297	43.0	1.4961832061068703	-98.0	0.16867469879518074	1283.0	9.204819277108435	2033.0	0.024096385542168676	2045.0	-0.41545454545454547	457.0	-0.01818181818181818	-20.0	-0.22244897959183677	218.0	1.5228926619644063E12	1.522892661994E12	1648.4375	54016.0	0.0	0.0	
-0.564885496183206	-42.0	0.6412213740458015	37.0	1.2366412213740459	-81.0	0.12048192771084337	1286.0	9.168674698795181	2037.0	-0.024096385542168676	2049.0	-0.4172727272727273	459.0	-0.028181818181818183	-31.0	-0.21938775510204084	215.0	1.5228926619683125E12	1.522892661996E12	1652.34375	54144.0	0.0	0.0	
-0.5343511450381679	-41.0	0.6259541984732824	35.0	1.6946564885496183	-111.0	0.08433734939759037	1283.0	9.204819277108435	2040.0	-0.07228915662650603	2053.0	-0.4172727272727273	459.0	-0.028181818181818183	-31.0	-0.21938775510204084	215.0	1.5228926619722188E12	1.522892661997E12	1656.25	54272.0	0.0	0.0	
-0.5801526717557252	-55.0	0.8396946564885496	38.0	1.4809160305343512	-97.0	0.08433734939759037	1283.0	9.204819277108435	2040.0	-0.0963855421686747	2055.0	-0.41454545454545455	456.0	-0.019090909090909092	-21.0	-0.22040816326530616	216.0	1.522892661976125E12	1.522892661998E12	1660.15625	54400.0	0.0	0.0	
-0.7633587786259541	-46.0	0.7022900763358778	50.0	1.4351145038167938	-94.0	0.060240963855421686	1284.0	9.19277108433735	2042.0	-0.12048192771084337	2057.0	-0.41363636363636364	455.0	-0.01818181818181818	-20.0	-0.22448979591836737	220.0	1.5228926619800313E12	1.522892661999E12	1664.0625	54528.0	0.0	0.0	
-0.47328244274809156	-62.0	0.9465648854961831	31.0	1.5572519083969465	-102.0	0.03614457831325302	1285.0	9.180722891566266	2044.0	-0.13253012048192772	2058.0	-0.4218181818181818	464.0	-0.025454545454545455	-28.0	-0.22142857142857145	217.0	1.5228926619839375E12	1.522892662E12	1667.96875	54656.0	0.0	0.0	
-0.8396946564885496	-55.0	0.8396946564885496	55.0	1.648854961832061	-108.0	0.03614457831325302	1284.0	9.19277108433735	2044.0	-0.16867469879518074	2061.0	-0.4109090909090909	452.0	-0.02181818181818182	-24.0	-0.22142857142857145	217.0	1.5228926619878438E12	1.522892662001E12	1671.875	54784.0	0.0	0.0	
-0.564885496183206	-43.0	0.6564885496183206	37.0	1.5419847328244274	-101.0	0.07228915662650603	1284.0	9.19277108433735	2041.0	-0.18072289156626506	2062.0	-0.4172727272727273	459.0	-0.019090909090909092	-21.0	-0.22244897959183677	218.0	1.52289266199175E12	1.522892662002E12	1675.78125	54912.0	0.0	0.0	
-0.6717557251908397	-44.0	0.6717557251908397	44.0	1.5419847328244274	-101.0	0.060240963855421686	1285.0	9.180722891566266	2042.0	-0.16867469879518074	2061.0	-0.42	462.0	-0.026363636363636363	-29.0	-0.22040816326530616	216.0	1.5228926619956563E12	1.522892662002E12	1679.6875	55040.0	0.0	0.0	
-0.9312977099236641	-31.0	0.47328244274809156	61.0	1.3587786259541985	-89.0	0.08433734939759037	1284.0	9.19277108433735	2040.0	-0.1566265060240964	2060.0	-0.42	462.0	-0.026363636363636363	-29.0	-0.22040816326530616	216.0	1.5228926619995625E12	1.522892662003E12	1683.59375	55168.0	0.0	0.0	
-0.9770992366412213	-43.0	0.6564885496183206	64.0	1.2671755725190839	-83.0	0.060240963855421686	1284.0	9.19277108433735	2042.0	-0.12048192771084337	2057.0	-0.4118181818181818	453.0	-0.02090909090909091	-23.0	-0.22448979591836737	220.0	1.5228926620034688E12	1.522892662015E12	1687.5	55296.0	0.0	0.0	
-0.9923664122137404	-39.0	0.5954198473282443	65.0	1.2213740458015268	-80.0	0.012048192771084338	1283.0	9.204819277108435	2046.0	-0.08433734939759037	2054.0	-0.4172727272727273	459.0	-0.02	-22.0	-0.21836734693877552	214.0	1.522892662007375E12	1.522892662029E12	1691.40625	55424.0	0.0	0.0	
-1.099236641221374	-39.0	0.5954198473282443	72.0	1.2366412213740459	-81.0	-0.024096385542168676	1283.0	9.204819277108435	2049.0	-0.03614457831325302	2050.0	-0.41	451.0	-0.007272727272727273	-8.0	-0.22346938775510206	219.0	1.5228926620112813E12	1.52289266203E12	1695.3125	55552.0	0.0	0.0	
-1.0229007633587786	-51.0	0.7786259541984732	67.0	1.4045801526717556	-92.0	-0.08433734939759037	1283.0	9.204819277108435	2054.0	-0.012048192771084338	2048.0	-0.41454545454545455	456.0	-0.022727272727272728	-25.0	-0.22244897959183677	218.0	1.5228926620151875E12	1.522892662033E12	1699.21875	55680.0	0.0	0.0	
-0.8396946564885496	-49.0	0.7480916030534351	55.0	1.5877862595419847	-104.0	-0.0963855421686747	1283.0	9.204819277108435	2055.0	0.012048192771084338	2046.0	-0.41818181818181815	460.0	-0.012727272727272728	-14.0	-0.21938775510204084	215.0	1.5228926620190938E12	1.522892662033E12	1703.125	55808.0	0.0	0.0	
-0.8091603053435115	-46.0	0.7022900763358778	53.0	1.816793893129771	-119.0	-0.08433734939759037	1284.0	9.19277108433735	2054.0	0.03614457831325302	2044.0	-0.4209090909090909	463.0	-0.02727272727272727	-30.0	-0.22040816326530616	216.0	1.522892662023E12	1.522892662035E12	1707.03125	55936.0	0.0	0.0	
-1.0076335877862594	-57.0	0.8702290076335878	66.0	1.83206106870229	-120.0	-0.04819277108433735	1283.0	9.204819277108435	2051.0	0.060240963855421686	2042.0	-0.4209090909090909	463.0	-0.02727272727272727	-30.0	-0.22040816326530616	216.0	1.5228926620269063E12	1.522892662035E12	1710.9375	56064.0	0.0	0.0	
-0.6412213740458015	-50.0	0.7633587786259541	42.0	1.5114503816793892	-99.0	-0.03614457831325302	1285.0	9.180722891566266	2050.0	0.10843373493975904	2038.0	-0.41454545454545455	456.0	-0.025454545454545455	-28.0	-0.22346938775510206	219.0	1.5228926620308125E12	1.522892662046E12	1714.84375	56192.0	0.0	0.0	
-0.8091603053435115	-26.0	0.3969465648854962	53.0	1.5419847328244274	-101.0	0.03614457831325302	1284.0	9.19277108433735	2044.0	0.10843373493975904	2038.0	-0.4172727272727273	459.0	-0.014545454545454545	-16.0	-0.21938775510204084	215.0	1.5228926620347188E12	1.522892662047E12	1718.75	56320.0	0.0	0.0	
-0.8702290076335878	-24.0	0.366412213740458	57.0	1.3893129770992365	-91.0	0.060240963855421686	1284.0	9.19277108433735	2042.0	0.13253012048192772	2036.0	-0.4209090909090909	463.0	-0.02909090909090909	-32.0	-0.22040816326530616	216.0	1.522892662038625E12	1.522892662048E12	1722.65625	56448.0	0.0	0.0	
-0.5954198473282443	-17.0	0.2595419847328244	39.0	1.3282442748091603	-87.0	0.060240963855421686	1284.0	9.19277108433735	2042.0	0.12048192771084337	2037.0	-0.4172727272727273	459.0	-0.02	-22.0	-0.21938775510204084	215.0	1.5228926620425313E12	1.522892662056E12	1726.5625	56576.0	0.0	0.0	
-0.6717557251908397	-25.0	0.38167938931297707	44.0	1.297709923664122	-85.0	0.07228915662650603	1285.0	9.180722891566266	2041.0	0.12048192771084337	2037.0	-0.4109090909090909	452.0	-0.00909090909090909	-10.0	-0.21938775510204084	215.0	1.5228926620464375E12	1.522892662057E12	1730.46875	56704.0	0.0	0.0	
-0.5190839694656488	-18.0	0.2748091603053435	34.0	1.3740458015267174	-90.0	0.07228915662650603	1286.0	9.168674698795181	2041.0	0.12048192771084337	2037.0	-0.42	462.0	-0.02727272727272727	-30.0	-0.22142857142857145	217.0	1.5228926620503438E12	1.522892662058E12	1734.375	56832.0	0.0	0.0	
-0.6259541984732824	-16.0	0.24427480916030533	41.0	1.4351145038167938	-94.0	0.10843373493975904	1286.0	9.168674698795181	2038.0	0.04819277108433735	2043.0	-0.42	462.0	-0.02727272727272727	-30.0	-0.22142857142857145	217.0	1.52289266205425E12	1.522892662058E12	1738.28125	56960.0	0.0	0.0	
-0.47328244274809156	-36.0	0.549618320610687	31.0	1.6946564885496183	-111.0	0.14457831325301207	1286.0	9.168674698795181	2035.0	-0.012048192771084338	2048.0	-0.41454545454545455	456.0	-0.02909090909090909	-32.0	-0.22448979591836737	220.0	1.5228926620581563E12	1.522892662067E12	1742.1875	57088.0	0.0	0.0	
-0.6412213740458015	-28.0	0.42748091603053434	42.0	1.6335877862595418	-107.0	0.1566265060240964	1285.0	9.180722891566266	2034.0	-0.060240963855421686	2052.0	-0.4109090909090909	452.0	0.0018181818181818182	2.0	-0.22142857142857145	217.0	1.5228926620620625E12	1.522892662069E12	1746.09375	57216.0	0.0	0.0	
-0.6564885496183206	-49.0	0.7480916030534351	43.0	1.5267175572519083	-100.0	0.1566265060240964	1284.0	9.19277108433735	2034.0	-0.0963855421686747	2055.0	-0.4127272727272727	454.0	-0.00909090909090909	-10.0	-0.22040816326530616	216.0	1.5228926620659688E12	1.52289266207E12	1750.0	57344.0	0.0	0.0	
-0.9618320610687022	-50.0	0.7633587786259541	63.0	1.5725190839694656	-103.0	0.13253012048192772	1283.0	9.204819277108435	2036.0	-0.12048192771084337	2057.0	-0.4163636363636364	458.0	-0.026363636363636363	-29.0	-0.22346938775510206	219.0	1.522892662069875E12	1.522892662087E12	1753.90625	57472.0	0.0	0.0	
-0.5343511450381679	-52.0	0.7938931297709924	35.0	1.4809160305343512	-97.0	0.08433734939759037	1283.0	9.204819277108435	2040.0	-0.14457831325301207	2059.0	-0.42	462.0	-0.017272727272727273	-19.0	-0.2163265306122449	212.0	1.5228926620737813E12	1.522892662088E12	1757.8125	57600.0	0.0	0.0	
-0.8702290076335878	-58.0	0.8854961832061068	57.0	1.5267175572519083	-100.0	0.04819277108433735	1283.0	9.204819277108435	2043.0	-0.1566265060240964	2060.0	-0.41818181818181815	460.0	-0.025454545454545455	-28.0	-0.22346938775510206	219.0	1.5228926620776875E12	1.522892662088E12	1761.71875	57728.0	0.0	0.0	
-0.5954198473282443	-35.0	0.5343511450381679	39.0	1.4809160305343512	-97.0	0.012048192771084338	1284.0	9.19277108433735	2046.0	-0.18072289156626506	2062.0	-0.41818181818181815	460.0	-0.025454545454545455	-28.0	-0.22346938775510206	219.0	1.5228926620815938E12	1.522892662093E12	1765.625	57856.0	0.0	0.0	
-0.6259541984732824	-33.0	0.5038167938931297	41.0	1.5114503816793892	-99.0	0.0	1283.0	9.204819277108435	2047.0	-0.18072289156626506	2062.0	-0.41545454545454547	457.0	-0.016363636363636365	-18.0	-0.21836734693877552	214.0	1.5228926620855E12	1.522892662094E12	1769.53125	57984.0	0.0	0.0	
-0.7480916030534351	-31.0	0.47328244274809156	49.0	1.4198473282442747	-93.0	-0.03614457831325302	1284.0	9.19277108433735	2050.0	-0.18072289156626506	2062.0	-0.41818181818181815	460.0	-0.017272727272727273	-19.0	-0.21836734693877552	214.0	1.5228926620894063E12	1.522892662094E12	1773.4375	58112.0	0.0	0.0	
-0.9618320610687022	-30.0	0.4580152671755725	63.0	1.3435114503816794	-88.0	-0.012048192771084338	1285.0	9.180722891566266	2048.0	-0.18072289156626506	2062.0	-0.42	462.0	-0.02	-22.0	-0.22653061224489798	222.0	1.5228926620933125E12	1.522892662102E12	1777.34375	58240.0	0.0	0.0	
-0.8702290076335878	-20.0	0.3053435114503817	57.0	1.4961832061068703	-98.0	-0.012048192771084338	1285.0	9.180722891566266	2048.0	-0.1927710843373494	2063.0	-0.4172727272727273	459.0	-0.01	-11.0	-0.22346938775510206	219.0	1.5228926620972188E12	1.522892662102E12	1781.25	58368.0	0.0	0.0	
-0.8854961832061068	-44.0	0.6717557251908397	58.0	1.3893129770992365	-91.0	-0.04819277108433735	1284.0	9.19277108433735	2051.0	-0.16867469879518074	2061.0	-0.4109090909090909	452.0	-0.023636363636363636	-26.0	-0.21938775510204084	215.0	1.522892662101125E12	1.522892662104E12	1785.15625	58496.0	0.0	0.0	
-0.8854961832061068	-58.0	0.8854961832061068	58.0	1.4198473282442747	-93.0	-0.10843373493975904	1284.0	9.19277108433735	2056.0	-0.14457831325301207	2059.0	-0.41454545454545455	456.0	-0.01818181818181818	-20.0	-0.21734693877551023	213.0	1.5228926621050313E12	1.522892662145E12	1789.0625	58624.0	0.0	0.0	
-0.9770992366412213	-42.0	0.6412213740458015	64.0	1.6946564885496183	-111.0	-0.12048192771084337	1283.0	9.204819277108435	2057.0	-0.12048192771084337	2057.0	-0.41454545454545455	456.0	-0.01818181818181818	-20.0	-0.21734693877551023	213.0	1.5228926621089375E12	1.522892662146E12	1792.96875	58752.0	0.0	0.0	
-1.1450381679389312	-44.0	0.6717557251908397	75.0	1.618320610687023	-106.0	-0.13253012048192772	1283.0	9.204819277108435	2058.0	-0.07228915662650603	2053.0	-0.4118181818181818	453.0	-0.019090909090909092	-21.0	-0.22244897959183677	218.0	1.5228926621128438E12	1.522892662147E12	1796.875	58880.0	0.0	0.0	
-1.297709923664122	-55.0	0.8396946564885496	85.0	1.6946564885496183	-111.0	-0.10843373493975904	1285.0	9.180722891566266	2056.0	-0.012048192771084338	2048.0	-0.4109090909090909	452.0	-0.0018181818181818182	-2.0	-0.22040816326530616	216.0	1.52289266211675E12	1.522892662149E12	1800.78125	59008.0	0.0	0.0	
-1.2519083969465647	-52.0	0.7938931297709924	82.0	1.7404580152671756	-114.0	-0.060240963855421686	1284.0	9.19277108433735	2052.0	0.024096385542168676	2045.0	-0.41	451.0	-0.01090909090909091	-12.0	-0.21530612244897962	211.0	1.5228926621206563E12	1.522892662149E12	1804.6875	59136.0	0.0	0.0	
-1.114503816793893	-34.0	0.5190839694656488	73.0	1.5725190839694656	-103.0	0.012048192771084338	1284.0	9.19277108433735	2046.0	0.060240963855421686	2042.0	-0.4127272727272727	454.0	-0.017272727272727273	-19.0	-0.22244897959183677	218.0	1.5228926621245625E12	1.52289266215E12	1808.59375	59264.0	0.0	0.0	
-1.0229007633587786	-30.0	0.4580152671755725	67.0	1.7862595419847327	-117.0	0.08433734939759037	1284.0	9.19277108433735	2040.0	0.12048192771084337	2037.0	-0.4163636363636364	458.0	-0.02	-22.0	-0.21836734693877552	214.0	1.5228926621284688E12	1.522892662153E12	1812.5	59392.0	0.0	0.0	
-1.0229007633587786	-17.0	0.2595419847328244	67.0	1.6946564885496183	-111.0	0.13253012048192772	1284.0	9.19277108433735	2036.0	0.16867469879518074	2033.0	-0.4163636363636364	458.0	-0.02	-22.0	-0.21836734693877552	214.0	1.522892662132375E12	1.522892662153E12	1816.40625	59520.0	0.0	0.0	
-0.9007633587786259	-20.0	0.3053435114503817	59.0	1.5725190839694656	-103.0	0.1927710843373494	1286.0	9.168674698795181	2031.0	0.18072289156626506	2032.0	-0.41454545454545455	456.0	-0.024545454545454544	-27.0	-0.22142857142857145	217.0	1.5228926621362813E12	1.522892662154E12	1820.3125	59648.0	0.0	0.0	
-0.8091603053435115	-7.0	0.10687022900763359	53.0	1.4809160305343512	-97.0	0.21686746987951808	1284.0	9.19277108433735	2029.0	0.1927710843373494	2031.0	-0.4127272727272727	454.0	-0.007272727272727273	-8.0	-0.22244897959183677	218.0	1.5228926621401875E12	1.522892662154E12	1824.21875	59776.0	0.0	0.0	
-0.8091603053435115	-2.0	0.030534351145038167	53.0	1.282442748091603	-84.0	0.22891566265060243	1283.0	9.204819277108435	2028.0	0.1927710843373494	2031.0	-0.41363636363636364	455.0	-0.02090909090909091	-23.0	-0.22040816326530616	216.0	1.5228926621440938E12	1.522892662155E12	1828.125	59904.0	0.0	0.0	
-0.7175572519083969	-12.0	0.183206106870229	47.0	1.5267175572519083	-100.0	0.1927710843373494	1283.0	9.204819277108435	2031.0	0.16867469879518074	2033.0	-0.41	451.0	-0.00909090909090909	-10.0	-0.22244897959183677	218.0	1.522892662148E12	1.522892662156E12	1832.03125	60032.0	0.0	0.0	
-0.6106870229007634	-27.0	0.41221374045801523	40.0	1.3435114503816794	-88.0	0.1566265060240964	1284.0	9.19277108433735	2034.0	0.13253012048192772	2036.0	-0.41363636363636364	455.0	-0.007272727272727273	-8.0	-0.21938775510204084	215.0	1.5228926621519063E12	1.522892662162E12	1835.9375	60160.0	0.0	0.0	
-0.42748091603053434	-33.0	0.5038167938931297	28.0	1.4809160305343512	-97.0	0.14457831325301207	1283.0	9.204819277108435	2035.0	0.08433734939759037	2040.0	-0.42	462.0	-0.017272727272727273	-19.0	-0.21938775510204084	215.0	1.5228926621558125E12	1.522892662163E12	1839.84375	60288.0	0.0	0.0	
-0.33587786259541985	-33.0	0.5038167938931297	22.0	1.4809160305343512	-97.0	0.14457831325301207	1285.0	9.180722891566266	2035.0	0.04819277108433735	2043.0	-0.42	462.0	-0.017272727272727273	-19.0	-0.21938775510204084	215.0	1.5228926621597188E12	1.522892662164E12	1843.75	60416.0	0.0	0.0	
-0.5190839694656488	-37.0	0.564885496183206	34.0	1.5267175572519083	-100.0	0.13253012048192772	1285.0	9.180722891566266	2036.0	0.012048192771084338	2046.0	-0.41454545454545455	456.0	-0.005454545454545455	-6.0	-0.2122448979591837	208.0	1.522892662163625E12	1.522892662174E12	1847.65625	60544.0	0.0	0.0	
-0.4580152671755725	-36.0	0.549618320610687	30.0	1.465648854961832	-96.0	0.18072289156626506	1286.0	9.168674698795181	2032.0	-0.012048192771084338	2048.0	-0.40636363636363637	447.0	-0.0036363636363636364	-4.0	-0.21938775510204084	215.0	1.5228926621675313E12	1.522892662175E12	1851.5625	60672.0	0.0	0.0	
-0.33587786259541985	-31.0	0.47328244274809156	22.0	1.297709923664122	-85.0	0.10843373493975904	1285.0	9.180722891566266	2038.0	-0.060240963855421686	2052.0	-0.42	462.0	-0.02181818181818182	-24.0	-0.21530612244897962	211.0	1.5228926621714375E12	1.522892662177E12	1855.46875	60800.0	0.0	0.0	
-0.33587786259541985	-37.0	0.564885496183206	22.0	1.450381679389313	-95.0	0.10843373493975904	1283.0	9.204819277108435	2038.0	-0.0963855421686747	2055.0	-0.41909090909090907	461.0	-0.022727272727272728	-25.0	-0.21530612244897962	211.0	1.5228926621753438E12	1.522892662187E12	1859.375	60928.0	0.0	0.0	
-0.4580152671755725	-42.0	0.6412213740458015	30.0	1.3129770992366412	-86.0	0.060240963855421686	1283.0	9.204819277108435	2042.0	-0.13253012048192772	2058.0	-0.41454545454545455	456.0	-0.013636363636363636	-15.0	-0.22244897959183677	218.0	1.52289266217925E12	1.522892662188E12	1863.28125	61056.0	0.0	0.0	
-0.564885496183206	-29.0	0.4427480916030534	37.0	1.297709923664122	-85.0	0.0	1283.0	9.204819277108435	2047.0	-0.16867469879518074	2061.0	-0.41818181818181815	460.0	-0.028181818181818183	-31.0	-0.21938775510204084	215.0	1.5228926621831563E12	1.52289266219E12	1867.1875	61184.0	0.0	0.0	
-0.9007633587786259	-17.0	0.2595419847328244	59.0	1.3587786259541985	-89.0	-0.03614457831325302	1284.0	9.19277108433735	2050.0	-0.14457831325301207	2059.0	-0.41818181818181815	460.0	-0.028181818181818183	-31.0	-0.21938775510204084	215.0	1.5228926621870625E12	1.522892662199E12	1871.09375	61312.0	0.0	0.0	
-0.7175572519083969	-39.0	0.5954198473282443	47.0	1.2671755725190839	-83.0	-0.08433734939759037	1284.0	9.19277108433735	2054.0	-0.14457831325301207	2059.0	-0.41818181818181815	460.0	-0.00909090909090909	-10.0	-0.21938775510204084	215.0	1.5228926621909688E12	1.522892662201E12	1875.0	61440.0	0.0	0.0	
-0.6564885496183206	-29.0	0.4427480916030534	43.0	1.5572519083969465	-102.0	-0.07228915662650603	1285.0	9.180722891566266	2053.0	-0.10843373493975904	2056.0	-0.4163636363636364	458.0	-0.014545454545454545	-16.0	-0.22448979591836737	220.0	1.522892662194875E12	1.522892662202E12	1878.90625	61568.0	0.0	0.0	
-0.8702290076335878	-33.0	0.5038167938931297	57.0	1.4961832061068703	-98.0	-0.07228915662650603	1284.0	9.19277108433735	2053.0	-0.08433734939759037	2054.0	-0.41545454545454547	457.0	-0.025454545454545455	-28.0	-0.21836734693877552	214.0	1.5228926621987813E12	1.522892662208E12	1882.8125	61696.0	0.0	0.0	
-0.7175572519083969	-38.0	0.5801526717557252	47.0	1.66412213740458	-109.0	-0.060240963855421686	1286.0	9.168674698795181	2052.0	-0.04819277108433735	2051.0	-0.4163636363636364	458.0	-0.03	-33.0	-0.22040816326530616	216.0	1.5228926622026875E12	1.52289266221E12	1886.71875	61824.0	0.0	0.0	
-0.7022900763358778	-49.0	0.7480916030534351	46.0	1.6030534351145038	-105.0	-0.012048192771084338	1286.0	9.168674698795181	2048.0	-0.03614457831325302	2050.0	-0.41545454545454547	457.0	-0.01818181818181818	-20.0	-0.22448979591836737	220.0	1.5228926622065938E12	1.522892662211E12	1890.625	61952.0	0.0	0.0	
-0.7633587786259541	-35.0	0.5343511450381679	50.0	1.6793893129770991	-110.0	0.060240963855421686	1285.0	9.180722891566266	2042.0	-0.04819277108433735	2051.0	-0.42272727272727273	465.0	-0.025454545454545455	-28.0	-0.22040816326530616	216.0	1.5228926622105E12	1.522892662223E12	1894.53125	62080.0	0.0	0.0	
-0.8396946564885496	-44.0	0.6717557251908397	55.0	1.5725190839694656	-103.0	0.10843373493975904	1286.0	9.168674698795181	2038.0	-0.024096385542168676	2049.0	-0.42272727272727273	465.0	-0.025454545454545455	-28.0	-0.22040816326530616	216.0	1.5228926622144063E12	1.522892662224E12	1898.4375	62208.0	0.0	0.0	
-0.6564885496183206	-46.0	0.7022900763358778	43.0	1.3893129770992365	-91.0	0.060240963855421686	1283.0	9.204819277108435	2042.0	-0.024096385542168676	2049.0	-0.41545454545454547	457.0	-0.022727272727272728	-25.0	-0.22244897959183677	218.0	1.5228926622183125E12	1.522892662226E12	1902.34375	62336.0	0.0	0.0	
-0.8854961832061068	-33.0	0.5038167938931297	58.0	1.4809160305343512	-97.0	0.024096385542168676	1281.0	9.228915662650603	2045.0	0.0	2047.0	-0.4163636363636364	458.0	-0.01818181818181818	-20.0	-0.22040816326530616	216.0	1.5228926622222188E12	1.522892662233E12	1906.25	62464.0	0.0	0.0	
-1.0076335877862594	-36.0	0.549618320610687	66.0	1.3740458015267174	-90.0	-0.03614457831325302	1282.0	9.216867469879519	2050.0	0.03614457831325302	2044.0	-0.41454545454545455	456.0	-0.01090909090909091	-12.0	-0.22040816326530616	216.0	1.522892662226125E12	1.522892662235E12	1910.15625	62592.0	0.0	0.0	
-0.7633587786259541	-37.0	0.564885496183206	50.0	1.2061068702290076	-79.0	-0.04819277108433735	1283.0	9.204819277108435	2051.0	0.04819277108433735	2043.0	-0.41363636363636364	455.0	-0.01818181818181818	-20.0	-0.22142857142857145	217.0	1.5228926622300313E12	1.522892662236E12	1914.0625	62720.0	0.0	0.0	
-0.6259541984732824	-44.0	0.6717557251908397	41.0	1.4809160305343512	-97.0	-0.04819277108433735	1283.0	9.204819277108435	2051.0	0.08433734939759037	2040.0	-0.4172727272727273	459.0	-0.012727272727272728	-14.0	-0.22448979591836737	220.0	1.5228926622339375E12	1.52289266225E12	1917.96875	62848.0	0.0	0.0	
-0.9618320610687022	-24.0	0.366412213740458	63.0	1.5877862595419847	-104.0	-0.012048192771084338	1285.0	9.180722891566266	2048.0	0.0963855421686747	2039.0	-0.41818181818181815	460.0	-0.01090909090909091	-12.0	-0.21836734693877552	214.0	1.5228926622378438E12	1.522892662252E12	1921.875	62976.0	0.0	0.0	
-0.549618320610687	-36.0	0.549618320610687	36.0	1.465648854961832	-96.0	0.03614457831325302	1286.0	9.168674698795181	2044.0	0.0963855421686747	2039.0	-0.41818181818181815	460.0	-0.01090909090909091	-12.0	-0.21836734693877552	214.0	1.52289266224175E12	1.522892662253E12	1925.78125	63104.0	0.0	0.0	
-0.47328244274809156	-38.0	0.5801526717557252	31.0	1.66412213740458	-109.0	0.04819277108433735	1285.0	9.180722891566266	2043.0	0.07228915662650603	2041.0	-0.41454545454545455	456.0	-0.019090909090909092	-21.0	-0.22448979591836737	220.0	1.5228926622456563E12	1.522892662255E12	1929.6875	63232.0	0.0	0.0	
-0.5343511450381679	-37.0	0.564885496183206	35.0	1.4198473282442747	-93.0	0.03614457831325302	1285.0	9.180722891566266	2044.0	0.03614457831325302	2044.0	-0.4172727272727273	459.0	-0.019090909090909092	-21.0	-0.22244897959183677	218.0	1.5228926622495625E12	1.522892662257E12	1933.59375	63360.0	0.0	0.0	
-0.4580152671755725	-44.0	0.6717557251908397	30.0	1.5725190839694656	-103.0	0.0	1284.0	9.19277108433735	2047.0	0.04819277108433735	2043.0	-0.4209090909090909	463.0	-0.026363636363636363	-29.0	-0.22244897959183677	218.0	1.5228926622534688E12	1.522892662258E12	1937.5	63488.0	0.0	0.0	
-0.48854961832061067	-42.0	0.6412213740458015	32.0	1.4351145038167938	-94.0	0.012048192771084338	1283.0	9.204819277108435	2046.0	0.060240963855421686	2042.0	-0.4118181818181818	453.0	-0.02181818181818182	-24.0	-0.22244897959183677	218.0	1.522892662257375E12	1.522892662294E12	1941.40625	63616.0	0.0	0.0	
-0.7175572519083969	-45.0	0.6870229007633587	47.0	1.4198473282442747	-93.0	0.0	1285.0	9.180722891566266	2047.0	0.08433734939759037	2040.0	-0.4172727272727273	459.0	-0.013636363636363636	-15.0	-0.21836734693877552	214.0	1.5228926622612813E12	1.522892662296E12	1945.3125	63744.0	0.0	0.0	
-0.6717557251908397	-22.0	0.33587786259541985	44.0	1.465648854961832	-96.0	-0.024096385542168676	1284.0	9.19277108433735	2049.0	0.0963855421686747	2039.0	-0.4209090909090909	463.0	-0.025454545454545455	-28.0	-0.22142857142857145	217.0	1.5228926622651875E12	1.522892662297E12	1949.21875	63872.0	0.0	0.0	
-0.4580152671755725	-31.0	0.47328244274809156	30.0	1.4351145038167938	-94.0	-0.024096385542168676	1285.0	9.180722891566266	2049.0	0.0963855421686747	2039.0	-0.4209090909090909	463.0	-0.025454545454545455	-28.0	-0.22142857142857145	217.0	1.5228926622690938E12	1.522892662299E12	1953.125	64000.0	0.0	0.0	
-0.2748091603053435	-34.0	0.5190839694656488	18.0	1.4045801526717556	-92.0	0.0	1284.0	9.19277108433735	2047.0	0.10843373493975904	2038.0	-0.41363636363636364	455.0	-0.022727272727272728	-25.0	-0.22346938775510206	219.0	1.522892662273E12	1.522892662301E12	1957.03125	64128.0	0.0	0.0	
-0.24427480916030533	-19.0	0.2900763358778626	16.0	1.450381679389313	-95.0	0.024096385542168676	1284.0	9.19277108433735	2045.0	0.07228915662650603	2041.0	-0.41818181818181815	460.0	-0.013636363636363636	-15.0	-0.22244897959183677	218.0	1.5228926622769063E12	1.522892662302E12	1960.9375	64256.0	0.0	0.0	
-0.3511450381679389	-27.0	0.41221374045801523	23.0	1.465648854961832	-96.0	0.012048192771084338	1286.0	9.168674698795181	2046.0	0.04819277108433735	2043.0	-0.4209090909090909	463.0	-0.02727272727272727	-30.0	-0.22142857142857145	217.0	1.5228926622808125E12	1.522892662304E12	1964.84375	64384.0	0.0	0.0	
-0.1984732824427481	-42.0	0.6412213740458015	13.0	1.6030534351145038	-105.0	-0.04819277108433735	1284.0	9.19277108433735	2051.0	0.04819277108433735	2043.0	-0.41545454545454547	457.0	-0.02727272727272727	-30.0	-0.22244897959183677	218.0	1.5228926622847188E12	1.522892662306E12	1968.75	64512.0	0.0	0.0	
-0.33587786259541985	-34.0	0.5190839694656488	22.0	1.7404580152671756	-114.0	-0.10843373493975904	1286.0	9.168674698795181	2056.0	0.03614457831325302	2044.0	-0.4218181818181818	464.0	-0.01818181818181818	-20.0	-0.21938775510204084	215.0	1.522892662288625E12	1.522892662307E12	1972.65625	64640.0	0.0	0.0	
-0.38167938931297707	-43.0	0.6564885496183206	25.0	1.7404580152671756	-114.0	-0.14457831325301207	1285.0	9.180722891566266	2059.0	0.012048192771084338	2046.0	-0.4218181818181818	464.0	-0.028181818181818183	-31.0	-0.21938775510204084	215.0	1.5228926622925313E12	1.522892662309E12	1976.5625	64768.0	0.0	0.0	
-0.47328244274809156	-27.0	0.41221374045801523	31.0	1.8473282442748091	-121.0	-0.14457831325301207	1286.0	9.168674698795181	2059.0	0.012048192771084338	2046.0	-0.41818181818181815	460.0	-0.028181818181818183	-31.0	-0.22346938775510206	219.0	1.5228926622964375E12	1.52289266231E12	1980.46875	64896.0	0.0	0.0	
-0.5190839694656488	-40.0	0.6106870229007634	34.0	1.66412213740458	-109.0	-0.12048192771084337	1284.0	9.19277108433735	2057.0	0.0	2047.0	-0.4172727272727273	459.0	-0.02909090909090909	-32.0	-0.22346938775510206	219.0	1.5228926623003438E12	1.522892662312E12	1984.375	65024.0	0.0	0.0	
-0.32061068702290074	-41.0	0.6259541984732824	21.0	1.8931297709923662	-124.0	-0.12048192771084337	1285.0	9.180722891566266	2057.0	-0.012048192771084338	2048.0	-0.4172727272727273	459.0	-0.019090909090909092	-21.0	-0.2163265306122449	212.0	1.52289266230425E12	1.522892662314E12	1988.28125	65152.0	0.0	0.0	
-0.4427480916030534	-43.0	0.6564885496183206	29.0	1.8931297709923662	-124.0	-0.13253012048192772	1285.0	9.180722891566266	2058.0	-0.04819277108433735	2051.0	-0.4172727272727273	459.0	-0.02727272727272727	-30.0	-0.22448979591836737	220.0	1.5228926623081563E12	1.522892662322E12	1992.1875	65280.0	0.0	0.0	
-0.38167938931297707	-23.0	0.3511450381679389	25.0	1.8015267175572518	-118.0	-0.08433734939759037	1285.0	9.180722891566266	2054.0	-0.07228915662650603	2053.0	-0.41454545454545455	456.0	-0.02090909090909091	-23.0	-0.21530612244897962	211.0	1.5228926623120625E12	1.522892662323E12	1996.09375	65408.0	0.0	0.0	
-0.366412213740458	-35.0	0.5343511450381679	24.0	1.7862595419847327	-117.0	-0.060240963855421686	1284.0	9.19277108433735	2052.0	-0.12048192771084337	2057.0	-0.4072727272727273	448.0	0.0	0.0	-0.21836734693877552	214.0	1.5228926623159688E12	1.522892662324E12	2000.0	0.0	0.0	0.0	
-0.47328244274809156	-25.0	0.38167938931297707	31.0	1.9236641221374045	-126.0	-0.0963855421686747	1283.0	9.204819277108435	2055.0	-0.0963855421686747	2055.0	-0.4072727272727273	448.0	0.0	0.0	-0.21836734693877552	214.0	1.522892662319875E12	1.522892662328E12	2003.90625	128.0	0.0	0.0	
-0.5801526717557252	-43.0	0.6564885496183206	38.0	1.5877862595419847	-104.0	-0.08433734939759037	1284.0	9.19277108433735	2054.0	-0.08433734939759037	2054.0	-0.42	462.0	-0.02727272727272727	-30.0	-0.22346938775510206	219.0	1.5228926623237813E12	1.522892662329E12	2007.8125	256.0	0.0	0.0	
-0.549618320610687	-26.0	0.3969465648854962	36.0	1.7862595419847327	-117.0	-0.07228915662650603	1283.0	9.204819277108435	2053.0	-0.060240963855421686	2052.0	-0.41545454545454547	457.0	-0.02181818181818182	-24.0	-0.22448979591836737	220.0	1.5228926623276875E12	1.522892662331E12	2011.71875	384.0	0.0	0.0	
-0.42748091603053434	-38.0	0.5801526717557252	28.0	1.9389312977099236	-127.0	-0.060240963855421686	1282.0	9.216867469879519	2052.0	-0.03614457831325302	2050.0	-0.41818181818181815	460.0	-0.019090909090909092	-21.0	-0.21938775510204084	215.0	1.5228926623315938E12	1.522892662346E12	2015.625	512.0	0.0	0.0	
-0.564885496183206	-35.0	0.5343511450381679	37.0	1.9694656488549618	-129.0	-0.03614457831325302	1283.0	9.204819277108435	2050.0	-0.012048192771084338	2048.0	-0.41454545454545455	456.0	-0.017272727272727273	-19.0	-0.2163265306122449	212.0	1.5228926623355E12	1.522892662347E12	2019.53125	640.0	0.0	0.0	
-0.2748091603053435	-35.0	0.5343511450381679	18.0	1.9541984732824427	-128.0	-0.012048192771084338	1284.0	9.19277108433735	2048.0	0.012048192771084338	2046.0	-0.4127272727272727	454.0	-0.01818181818181818	-20.0	-0.22142857142857145	217.0	1.5228926623394063E12	1.522892662348E12	2023.4375	768.0	0.0	0.0	
-0.21374045801526717	-51.0	0.7786259541984732	14.0	1.9694656488549618	-129.0	0.0	1283.0	9.204819277108435	2047.0	0.0	2047.0	-0.42	462.0	-0.019090909090909092	-21.0	-0.21938775510204084	215.0	1.5228926623433125E12	1.522892662359E12	2027.34375	896.0	0.0	0.0	
-0.13740458015267176	-41.0	0.6259541984732824	9.0	2.1374045801526718	-140.0	0.0	1283.0	9.204819277108435	2047.0	0.012048192771084338	2046.0	-0.42	462.0	-0.019090909090909092	-21.0	-0.21938775510204084	215.0	1.5228926623472188E12	1.52289266236E12	2031.25	1024.0	0.0	0.0	
-0.42748091603053434	-20.0	0.3053435114503817	28.0	2.0610687022900764	-135.0	0.060240963855421686	1282.0	9.216867469879519	2042.0	0.0	2047.0	-0.41363636363636364	455.0	-0.022727272727272728	-25.0	-0.22551020408163266	221.0	1.522892662351125E12	1.522892662362E12	2035.15625	1152.0	0.0	0.0	
-0.33587786259541985	-14.0	0.21374045801526717	22.0	1.8931297709923662	-124.0	0.08433734939759037	1283.0	9.204819277108435	2040.0	0.012048192771084338	2046.0	-0.4118181818181818	453.0	-0.012727272727272728	-14.0	-0.22346938775510206	219.0	1.5228926623550313E12	1.522892662363E12	2039.0625	1280.0	0.0	0.0	
-0.10687022900763359	-7.0	0.10687022900763359	7.0	1.83206106870229	-120.0	0.08433734939759037	1285.0	9.180722891566266	2040.0	0.012048192771084338	2046.0	-0.4218181818181818	464.0	-0.01818181818181818	-20.0	-0.21938775510204084	215.0	1.5228926623589375E12	1.522892662364E12	2042.96875	1408.0	0.0	0.0	
-0.2748091603053435	-20.0	0.3053435114503817	18.0	1.9541984732824427	-128.0	0.13253012048192772	1283.0	9.204819277108435	2036.0	0.0	2047.0	-0.4109090909090909	452.0	-0.01	-11.0	-0.22244897959183677	218.0	1.5228926623628438E12	1.522892662365E12	2046.875	1536.0	0.0	0.0	
-0.13740458015267176	-19.0	0.2900763358778626	9.0	1.8931297709923662	-124.0	0.14457831325301207	1285.0	9.180722891566266	2035.0	-0.012048192771084338	2048.0	-0.41363636363636364	455.0	-0.015454545454545455	-17.0	-0.22142857142857145	217.0	1.52289266236675E12	1.522892662378E12	2050.78125	1664.0	0.0	0.0	
-0.0916030534351145	3.0	-0.04580152671755725	6.0	1.7557251908396947	-115.0	0.20481927710843376	1284.0	9.19277108433735	2030.0	-0.08433734939759037	2054.0	-0.42	462.0	-0.023636363636363636	-26.0	-0.21938775510204084	215.0	1.5228926623706563E12	1.52289266238E12	2054.6875	1792.0	0.0	0.0	
-0.0916030534351145	-22.0	0.33587786259541985	6.0	1.7099236641221374	-112.0	0.20481927710843376	1283.0	9.204819277108435	2030.0	-0.13253012048192772	2058.0	-0.42	462.0	-0.023636363636363636	-26.0	-0.21938775510204084	215.0	1.5228926623745625E12	1.52289266238E12	2058.59375	1920.0	0.0	0.0	
-0.07633587786259542	-36.0	0.549618320610687	5.0	1.8473282442748091	-121.0	0.1927710843373494	1284.0	9.19277108433735	2031.0	-0.20481927710843376	2064.0	-0.4172727272727273	459.0	-0.02090909090909091	-23.0	-0.2163265306122449	212.0	1.5228926623784688E12	1.522892662388E12	2062.5	2048.0	0.0	0.0	
-0.030534351145038167	-33.0	0.5038167938931297	2.0	1.8931297709923662	-124.0	0.21686746987951808	1283.0	9.204819277108435	2029.0	-0.26506024096385544	2069.0	-0.41545454545454547	457.0	-0.011818181818181818	-13.0	-0.21836734693877552	214.0	1.522892662382375E12	1.522892662389E12	2066.40625	2176.0	0.0	0.0	
-0.3511450381679389	-40.0	0.6106870229007634	23.0	1.7862595419847327	-117.0	0.1927710843373494	1284.0	9.19277108433735	2031.0	-0.30120481927710846	2072.0	-0.4218181818181818	464.0	-0.02181818181818182	-24.0	-0.2163265306122449	212.0	1.5228926623862813E12	1.52289266239E12	2070.3125	2304.0	0.0	0.0	
-0.2900763358778626	-45.0	0.6870229007633587	19.0	1.83206106870229	-120.0	0.1927710843373494	1284.0	9.19277108433735	2031.0	-0.3493975903614458	2076.0	-0.41909090909090907	461.0	-0.026363636363636363	-29.0	-0.22142857142857145	217.0	1.5228926623901875E12	1.522892662403E12	2074.21875	2432.0	0.0	0.0	
-0.33587786259541985	-54.0	0.8244274809160305	22.0	1.7557251908396947	-115.0	0.20481927710843376	1284.0	9.19277108433735	2030.0	-0.3253012048192771	2074.0	-0.41545454545454547	457.0	-0.01090909090909091	-12.0	-0.21734693877551023	213.0	1.5228926623940938E12	1.522892662404E12	2078.125	2560.0	0.0	0.0	
-0.549618320610687	-58.0	0.8854961832061068	36.0	1.9083969465648853	-125.0	0.24096385542168675	1285.0	9.180722891566266	2027.0	-0.3132530120481928	2073.0	-0.4218181818181818	464.0	-0.02727272727272727	-30.0	-0.21734693877551023	213.0	1.522892662398E12	1.522892662405E12	2082.03125	2688.0	0.0	0.0	
-0.366412213740458	-56.0	0.8549618320610687	24.0	1.66412213740458	-109.0	0.22891566265060243	1284.0	9.19277108433735	2028.0	-0.3132530120481928	2073.0	-0.4218181818181818	464.0	-0.02727272727272727	-30.0	-0.21734693877551023	213.0	1.5228926624019063E12	1.522892662412E12	2085.9375	2816.0	0.0	0.0	
-0.6412213740458015	-60.0	0.916030534351145	42.0	1.5725190839694656	-103.0	0.22891566265060243	1284.0	9.19277108433735	2028.0	-0.3132530120481928	2073.0	-0.4218181818181818	464.0	-0.026363636363636363	-29.0	-0.21938775510204084	215.0	1.5228926624058125E12	1.522892662413E12	2089.84375	2944.0	0.0	0.0	
-0.5954198473282443	-67.0	1.0229007633587786	39.0	1.7099236641221374	-112.0	0.20481927710843376	1284.0	9.19277108433735	2030.0	-0.3132530120481928	2073.0	-0.41818181818181815	460.0	-0.014545454545454545	-16.0	-0.22142857142857145	217.0	1.5228926624097188E12	1.522892662414E12	2093.75	3072.0	0.0	0.0	
-0.732824427480916	-53.0	0.8091603053435115	48.0	1.5725190839694656	-103.0	0.18072289156626506	1283.0	9.204819277108435	2032.0	-0.30120481927710846	2072.0	-0.42	462.0	-0.02727272727272727	-30.0	-0.21836734693877552	214.0	1.522892662413625E12	1.522892662454E12	2097.65625	3200.0	0.0	0.0	
-0.6412213740458015	-48.0	0.732824427480916	42.0	1.3893129770992365	-91.0	0.16867469879518074	1284.0	9.19277108433735	2033.0	-0.28915662650602414	2071.0	-0.41818181818181815	460.0	-0.011818181818181818	-13.0	-0.213265306122449	209.0	1.5228926624175313E12	1.522892662456E12	2101.5625	3328.0	0.0	0.0	
-1.099236641221374	-49.0	0.7480916030534351	72.0	1.4198473282442747	-93.0	0.13253012048192772	1283.0	9.204819277108435	2036.0	-0.26506024096385544	2069.0	-0.41545454545454547	457.0	-0.01818181818181818	-20.0	-0.22142857142857145	217.0	1.5228926624214375E12	1.522892662457E12	2105.46875	3456.0	0.0	0.0	
-0.8854961832061068	-47.0	0.7175572519083969	58.0	1.3587786259541985	-89.0	0.14457831325301207	1284.0	9.19277108433735	2035.0	-0.20481927710843376	2064.0	-0.4118181818181818	453.0	-0.01	-11.0	-0.22346938775510206	219.0	1.5228926624253438E12	1.522892662459E12	2109.375	3584.0	0.0	0.0	
-1.0687022900763359	-60.0	0.916030534351145	70.0	1.618320610687023	-106.0	0.08433734939759037	1285.0	9.180722891566266	2040.0	-0.16867469879518074	2061.0	-0.4118181818181818	453.0	-0.01	-11.0	-0.22346938775510206	219.0	1.52289266242925E12	1.52289266246E12	2113.28125	3712.0	0.0	0.0	
-0.8091603053435115	-76.0	1.1603053435114503	53.0	1.465648854961832	-96.0	0.04819277108433735	1284.0	9.19277108433735	2043.0	-0.13253012048192772	2058.0	-0.4172727272727273	459.0	-0.023636363636363636	-26.0	-0.22142857142857145	217.0	1.5228926624331563E12	1.522892662461E12	2117.1875	3840.0	0.0	0.0	
-1.0381679389312977	-73.0	1.114503816793893	68.0	1.4961832061068703	-98.0	0.012048192771084338	1284.0	9.19277108433735	2046.0	-0.0963855421686747	2055.0	-0.4163636363636364	458.0	-0.01818181818181818	-20.0	-0.22346938775510206	219.0	1.5228926624370625E12	1.522892662462E12	2121.09375	3968.0	0.0	0.0	
-0.8702290076335878	-60.0	0.916030534351145	57.0	1.3740458015267174	-90.0	-0.012048192771084338	1285.0	9.180722891566266	2048.0	-0.07228915662650603	2053.0	-0.42272727272727273	465.0	-0.028181818181818183	-31.0	-0.21836734693877552	214.0	1.5228926624409688E12	1.522892662463E12	2125.0	4096.0	0.0	0.0	
-0.8091603053435115	-60.0	0.916030534351145	53.0	1.648854961832061	-108.0	-0.024096385542168676	1284.0	9.19277108433735	2049.0	-0.04819277108433735	2051.0	-0.41363636363636364	455.0	-0.019090909090909092	-21.0	-0.22346938775510206	219.0	1.522892662444875E12	1.522892662464E12	2128.90625	4224.0	0.0	0.0	
-0.7480916030534351	-39.0	0.5954198473282443	49.0	1.6030534351145038	-105.0	-0.024096385542168676	1284.0	9.19277108433735	2049.0	-0.060240963855421686	2052.0	-0.41818181818181815	460.0	-0.02181818181818182	-24.0	-0.21938775510204084	215.0	1.5228926624487813E12	1.522892662465E12	2132.8125	4352.0	0.0	0.0	
-0.8854961832061068	-32.0	0.48854961832061067	58.0	1.5267175572519083	-100.0	0.024096385542168676	1286.0	9.168674698795181	2045.0	-0.060240963855421686	2052.0	-0.41818181818181815	460.0	-0.023636363636363636	-26.0	-0.21836734693877552	214.0	1.5228926624526875E12	1.522892662466E12	2136.71875	4480.0	0.0	0.0	
-0.7786259541984732	-22.0	0.33587786259541985	51.0	1.5419847328244274	-101.0	0.07228915662650603	1284.0	9.19277108433735	2041.0	-0.060240963855421686	2052.0	-0.4209090909090909	463.0	-0.023636363636363636	-26.0	-0.21836734693877552	214.0	1.5228926624565938E12	1.522892662466E12	2140.625	4608.0	0.0	0.0	
-0.8549618320610687	-32.0	0.48854961832061067	56.0	1.4961832061068703	-98.0	0.13253012048192772	1284.0	9.19277108433735	2036.0	-0.060240963855421686	2052.0	-0.4109090909090909	452.0	-0.022727272727272728	-25.0	-0.22244897959183677	218.0	1.5228926624605E12	1.522892662467E12	2144.53125	4736.0	0.0	0.0	
-0.8244274809160305	-36.0	0.549618320610687	54.0	1.4198473282442747	-93.0	0.14457831325301207	1283.0	9.204819277108435	2035.0	-0.08433734939759037	2054.0	-0.4172727272727273	459.0	-0.019090909090909092	-21.0	-0.22040816326530616	216.0	1.5228926624644063E12	1.522892662469E12	2148.4375	4864.0	0.0	0.0	
-0.8854961832061068	-43.0	0.6564885496183206	58.0	1.5572519083969465	-102.0	0.14457831325301207	1284.0	9.19277108433735	2035.0	-0.12048192771084337	2057.0	-0.4172727272727273	459.0	-0.01090909090909091	-12.0	-0.21020408163265308	206.0	1.5228926624683125E12	1.52289266247E12	2152.34375	4992.0	0.0	0.0	
-0.8854961832061068	-47.0	0.7175572519083969	58.0	1.4045801526717556	-92.0	0.12048192771084337	1283.0	9.204819277108435	2037.0	-0.13253012048192772	2058.0	-0.41545454545454547	457.0	-0.022727272727272728	-25.0	-0.2163265306122449	212.0	1.5228926624722188E12	1.522892662482E12	2156.25	5120.0	0.0	0.0	
-0.8549618320610687	-43.0	0.6564885496183206	56.0	1.3893129770992365	-91.0	0.0963855421686747	1283.0	9.204819277108435	2039.0	-0.14457831325301207	2059.0	-0.4090909090909091	450.0	-0.017272727272727273	-19.0	-0.21938775510204084	215.0	1.522892662476125E12	1.522892662483E12	2160.15625	5248.0	0.0	0.0	
-0.7022900763358778	-64.0	0.9770992366412213	46.0	1.5267175572519083	-100.0	0.0963855421686747	1283.0	9.204819277108435	2039.0	-0.1927710843373494	2063.0	-0.4090909090909091	450.0	-0.017272727272727273	-19.0	-0.21938775510204084	215.0	1.5228926624800313E12	1.522892662484E12	2164.0625	5376.0	0.0	0.0	
-0.9923664122137404	-53.0	0.8091603053435115	65.0	1.7709923664122136	-116.0	0.12048192771084337	1284.0	9.19277108433735	2037.0	-0.22891566265060243	2066.0	-0.4109090909090909	452.0	-0.01	-11.0	-0.22142857142857145	217.0	1.5228926624839375E12	1.522892662499E12	2167.96875	5504.0	0.0	0.0	
-1.0076335877862594	-46.0	0.7022900763358778	66.0	1.465648854961832	-96.0	0.13253012048192772	1285.0	9.180722891566266	2036.0	-0.22891566265060243	2066.0	-0.41454545454545455	456.0	-0.01818181818181818	-20.0	-0.22142857142857145	217.0	1.5228926624878438E12	1.5228926625E12	2171.875	5632.0	0.0	0.0	
-0.8396946564885496	-69.0	1.0534351145038168	55.0	1.5877862595419847	-104.0	0.14457831325301207	1284.0	9.19277108433735	2035.0	-0.24096385542168675	2067.0	-0.41909090909090907	461.0	-0.011818181818181818	-13.0	-0.21836734693877552	214.0	1.52289266249175E12	1.5228926625E12	2175.78125	5760.0	0.0	0.0	
-0.9465648854961831	-51.0	0.7786259541984732	62.0	1.1908396946564885	-78.0	0.12048192771084337	1283.0	9.204819277108435	2037.0	-0.26506024096385544	2069.0	-0.4172727272727273	459.0	-0.008181818181818182	-9.0	-0.213265306122449	209.0	1.5228926624956563E12	1.522892662503E12	2179.6875	5888.0	0.0	0.0	
-1.114503816793893	-47.0	0.7175572519083969	73.0	1.3282442748091603	-87.0	0.08433734939759037	1284.0	9.19277108433735	2040.0	-0.24096385542168675	2067.0	-0.41454545454545455	456.0	-0.011818181818181818	-13.0	-0.2163265306122449	212.0	1.5228926624995625E12	1.522892662503E12	2183.59375	6016.0	0.0	0.0	
-1.0381679389312977	-36.0	0.549618320610687	68.0	1.3435114503816794	-88.0	0.012048192771084338	1284.0	9.19277108433735	2046.0	-0.24096385542168675	2067.0	-0.41909090909090907	461.0	-0.012727272727272728	-14.0	-0.21836734693877552	214.0	1.5228926625034688E12	1.522892662504E12	2187.5	6144.0	0.0	0.0	
-1.297709923664122	-51.0	0.7786259541984732	85.0	1.1908396946564885	-78.0	0.012048192771084338	1283.0	9.204819277108435	2046.0	-0.21686746987951808	2065.0	-0.41909090909090907	461.0	-0.012727272727272728	-14.0	-0.21836734693877552	214.0	1.522892662507375E12	1.522892662519E12	2191.40625	6272.0	0.0	0.0	
-1.099236641221374	-42.0	0.6412213740458015	72.0	1.450381679389313	-95.0	0.0	1284.0	9.19277108433735	2047.0	-0.21686746987951808	2065.0	-0.4209090909090909	463.0	-0.026363636363636363	-29.0	-0.22142857142857145	217.0	1.5228926625112813E12	1.522892662519E12	2195.3125	6400.0	0.0	0.0	
-1.5419847328244274	-41.0	0.6259541984732824	101.0	1.3893129770992365	-91.0	0.0	1284.0	9.19277108433735	2047.0	-0.1927710843373494	2063.0	-0.42	462.0	-0.02181818181818182	-24.0	-0.2142857142857143	210.0	1.5228926625151875E12	1.522892662524E12	2199.21875	6528.0	0.0	0.0	
-1.3282442748091603	-50.0	0.7633587786259541	87.0	1.3893129770992365	-91.0	0.012048192771084338	1284.0	9.19277108433735	2046.0	-0.16867469879518074	2061.0	-0.4218181818181818	464.0	-0.025454545454545455	-28.0	-0.2163265306122449	212.0	1.5228926625190938E12	1.522892662531E12	2203.125	6656.0	0.0	0.0	
-1.3893129770992365	-40.0	0.6106870229007634	91.0	1.4809160305343512	-97.0	0.04819277108433735	1285.0	9.180722891566266	2043.0	-0.16867469879518074	2061.0	-0.4218181818181818	464.0	-0.02909090909090909	-32.0	-0.22040816326530616	216.0	1.522892662523E12	1.522892662533E12	2207.03125	6784.0	0.0	0.0	
-1.4809160305343512	-63.0	0.9618320610687022	97.0	1.618320610687023	-106.0	0.08433734939759037	1285.0	9.180722891566266	2040.0	-0.18072289156626506	2062.0	-0.41363636363636364	455.0	-0.025454545454545455	-28.0	-0.22244897959183677	218.0	1.5228926625269063E12	1.522892662533E12	2210.9375	6912.0	0.0	0.0	
-1.3435114503816794	-58.0	0.8854961832061068	88.0	1.6030534351145038	-105.0	0.07228915662650603	1284.0	9.19277108433735	2041.0	-0.20481927710843376	2064.0	-0.42272727272727273	465.0	-0.016363636363636365	-18.0	-0.21734693877551023	213.0	1.5228926625308125E12	1.522892662538E12	2214.84375	7040.0	0.0	0.0	
-1.450381679389313	-56.0	0.8549618320610687	95.0	1.3740458015267174	-90.0	0.07228915662650603	1283.0	9.204819277108435	2041.0	-0.1927710843373494	2063.0	-0.42272727272727273	465.0	-0.016363636363636365	-18.0	-0.21734693877551023	213.0	1.5228926625347188E12	1.52289266254E12	2218.75	7168.0	0.0	0.0	
-1.297709923664122	-64.0	0.9770992366412213	85.0	1.450381679389313	-95.0	0.060240963855421686	1283.0	9.204819277108435	2042.0	-0.1927710843373494	2063.0	-0.41909090909090907	461.0	-0.02909090909090909	-32.0	-0.22040816326530616	216.0	1.522892662538625E12	1.52289266254E12	2222.65625	7296.0	0.0	0.0	
-1.4045801526717556	-52.0	0.7938931297709924	92.0	1.6335877862595418	-107.0	0.04819277108433735	1284.0	9.19277108433735	2043.0	-0.1566265060240964	2060.0	-0.4163636363636364	458.0	-0.02727272727272727	-30.0	-0.21836734693877552	214.0	1.5228926625425313E12	1.522892662556E12	2226.5625	7424.0	0.0	0.0	
-1.2061068702290076	-52.0	0.7938931297709924	79.0	1.3740458015267174	-90.0	0.024096385542168676	1282.0	9.216867469879519	2045.0	-0.12048192771084337	2057.0	-0.4118181818181818	453.0	9.090909090909091E-4	1.0	-0.22142857142857145	217.0	1.5228926625464375E12	1.522892662557E12	2230.46875	7552.0	0.0	0.0	
-1.5572519083969465	-52.0	0.7938931297709924	102.0	1.4809160305343512	-97.0	0.060240963855421686	1283.0	9.204819277108435	2042.0	-0.10843373493975904	2056.0	-0.41818181818181815	460.0	-0.013636363636363636	-15.0	-0.22040816326530616	216.0	1.5228926625503438E12	1.522892662558E12	2234.375	7680.0	0.0	0.0	
-1.3587786259541985	-47.0	0.7175572519083969	89.0	1.5114503816793892	-99.0	0.08433734939759037	1285.0	9.180722891566266	2040.0	-0.08433734939759037	2054.0	-0.4172727272727273	459.0	-0.028181818181818183	-31.0	-0.22244897959183677	218.0	1.52289266255425E12	1.522892662558E12	2238.28125	7808.0	0.0	0.0	
-1.6946564885496183	-44.0	0.6717557251908397	111.0	1.450381679389313	-95.0	0.10843373493975904	1284.0	9.19277108433735	2038.0	-0.07228915662650603	2053.0	-0.42	462.0	-0.017272727272727273	-19.0	-0.21938775510204084	215.0	1.5228926625581563E12	1.522892662569E12	2242.1875	7936.0	0.0	0.0	
-1.465648854961832	-51.0	0.7786259541984732	96.0	1.3129770992366412	-86.0	0.0963855421686747	1284.0	9.19277108433735	2039.0	-0.0963855421686747	2055.0	-0.42	462.0	-0.017272727272727273	-19.0	-0.21938775510204084	215.0	1.5228926625620625E12	1.52289266257E12	2246.09375	8064.0	0.0	0.0	
-1.1450381679389312	-51.0	0.7786259541984732	75.0	1.2061068702290076	-79.0	0.0963855421686747	1284.0	9.19277108433735	2039.0	-0.0963855421686747	2055.0	-0.4209090909090909	463.0	-0.023636363636363636	-26.0	-0.21938775510204084	215.0	1.5228926625659688E12	1.522892662571E12	2250.0	8192.0	0.0	0.0	
-1.465648854961832	-52.0	0.7938931297709924	96.0	1.4198473282442747	-93.0	0.060240963855421686	1281.0	9.228915662650603	2042.0	-0.0963855421686747	2055.0	-0.4172727272727273	459.0	-0.022727272727272728	-25.0	-0.22346938775510206	219.0	1.522892662569875E12	1.522892662601E12	2253.90625	8320.0	0.0	0.0	
-1.1908396946564885	-69.0	1.0534351145038168	78.0	1.3282442748091603	-87.0	0.024096385542168676	1283.0	9.204819277108435	2045.0	-0.12048192771084337	2057.0	-0.4209090909090909	463.0	-0.01818181818181818	-20.0	-0.21938775510204084	215.0	1.5228926625737813E12	1.522892662602E12	2257.8125	8448.0	0.0	0.0	
-1.3893129770992365	-49.0	0.7480916030534351	91.0	1.5419847328244274	-101.0	0.0	1284.0	9.19277108433735	2047.0	-0.12048192771084337	2057.0	-0.41909090909090907	461.0	-0.02181818181818182	-24.0	-0.22653061224489798	222.0	1.5228926625776875E12	1.522892662603E12	2261.71875	8576.0	0.0	0.0	
-1.5572519083969465	-60.0	0.916030534351145	102.0	1.5114503816793892	-99.0	0.012048192771084338	1285.0	9.180722891566266	2046.0	-0.13253012048192772	2058.0	-0.4163636363636364	458.0	-0.02	-22.0	-0.22040816326530616	216.0	1.5228926625815938E12	1.522892662605E12	2265.625	8704.0	0.0	0.0	
-1.4961832061068703	-52.0	0.7938931297709924	98.0	1.3129770992366412	-86.0	0.024096385542168676	1285.0	9.180722891566266	2045.0	-0.12048192771084337	2057.0	-0.42363636363636364	466.0	-0.02	-22.0	-0.21836734693877552	214.0	1.5228926625855E12	1.522892662606E12	2269.53125	8832.0	0.0	0.0	
-1.5267175572519083	-51.0	0.7786259541984732	100.0	1.3129770992366412	-86.0	0.024096385542168676	1284.0	9.19277108433735	2045.0	-0.14457831325301207	2059.0	-0.42363636363636364	466.0	-0.02	-22.0	-0.21836734693877552	214.0	1.5228926625894063E12	1.522892662607E12	2273.4375	8960.0	0.0	0.0	
-1.4198473282442747	-59.0	0.9007633587786259	93.0	1.4351145038167938	-94.0	0.04819277108433735	1285.0	9.180722891566266	2043.0	-0.14457831325301207	2059.0	-0.4163636363636364	458.0	-0.02727272727272727	-30.0	-0.22040816326530616	216.0	1.5228926625933125E12	1.522892662608E12	2277.34375	9088.0	0.0	0.0	
-1.5114503816793892	-49.0	0.7480916030534351	99.0	1.2519083969465647	-82.0	0.060240963855421686	1284.0	9.19277108433735	2042.0	-0.14457831325301207	2059.0	-0.4172727272727273	459.0	-0.019090909090909092	-21.0	-0.2163265306122449	212.0	1.5228926625972188E12	1.522892662609E12	2281.25	9216.0	0.0	0.0	
-1.5419847328244274	-43.0	0.6564885496183206	101.0	1.4045801526717556	-92.0	0.060240963855421686	1283.0	9.204819277108435	2042.0	-0.13253012048192772	2058.0	-0.42363636363636364	466.0	-0.016363636363636365	-18.0	-0.21734693877551023	213.0	1.522892662601125E12	1.52289266261E12	2285.15625	9344.0	0.0	0.0	
-1.6793893129770991	-47.0	0.7175572519083969	110.0	1.3435114503816794	-88.0	0.04819277108433735	1284.0	9.19277108433735	2043.0	-0.12048192771084337	2057.0	-0.4209090909090909	463.0	-0.026363636363636363	-29.0	-0.22551020408163266	221.0	1.5228926626050313E12	1.522892662621E12	2289.0625	9472.0	0.0	0.0	
-1.5419847328244274	-40.0	0.6106870229007634	101.0	1.4351145038167938	-94.0	0.060240963855421686	1284.0	9.19277108433735	2042.0	-0.08433734939759037	2054.0	-0.41545454545454547	457.0	-0.013636363636363636	-15.0	-0.22040816326530616	216.0	1.5228926626089375E12	1.522892662622E12	2292.96875	9600.0	0.0	0.0	
-1.6030534351145038	-42.0	0.6412213740458015	105.0	1.4961832061068703	-98.0	0.060240963855421686	1285.0	9.180722891566266	2042.0	-0.07228915662650603	2053.0	-0.41545454545454547	457.0	-0.0018181818181818182	-2.0	-0.22040816326530616	216.0	1.5228926626128438E12	1.522892662623E12	2296.875	9728.0	0.0	0.0	
-1.8473282442748091	-42.0	0.6412213740458015	121.0	1.4045801526717556	-92.0	0.08433734939759037	1284.0	9.19277108433735	2040.0	-0.03614457831325302	2050.0	-0.4118181818181818	453.0	-0.0018181818181818182	-2.0	-0.21836734693877552	214.0	1.52289266261675E12	1.522892662624E12	2300.78125	9856.0	0.0	0.0	
-1.3587786259541985	-36.0	0.549618320610687	89.0	1.4961832061068703	-98.0	0.08433734939759037	1284.0	9.19277108433735	2040.0	-0.060240963855421686	2052.0	-0.41909090909090907	461.0	-0.007272727272727273	-8.0	-0.21530612244897962	211.0	1.5228926626206563E12	1.522892662625E12	2304.6875	9984.0	0.0	0.0	
-1.5725190839694656	-54.0	0.8244274809160305	103.0	1.2213740458015268	-80.0	0.10843373493975904	1284.0	9.19277108433735	2038.0	-0.0963855421686747	2055.0	-0.4127272727272727	454.0	-0.011818181818181818	-13.0	-0.21734693877551023	213.0	1.5228926626245625E12	1.522892662626E12	2308.59375	10112.0	0.0	0.0	
-1.5572519083969465	-40.0	0.6106870229007634	102.0	1.450381679389313	-95.0	0.12048192771084337	1283.0	9.204819277108435	2037.0	-0.13253012048192772	2058.0	-0.41909090909090907	461.0	-0.02	-22.0	-0.21938775510204084	215.0	1.5228926626284688E12	1.522892662639E12	2312.5	10240.0	0.0	0.0	
-1.3282442748091603	-58.0	0.8854961832061068	87.0	1.465648854961832	-96.0	0.1566265060240964	1283.0	9.204819277108435	2034.0	-0.14457831325301207	2059.0	-0.42272727272727273	465.0	-0.028181818181818183	-31.0	-0.22244897959183677	218.0	1.522892662632375E12	1.522892662641E12	2316.40625	10368.0	0.0	0.0	
-1.7099236641221374	-54.0	0.8244274809160305	112.0	1.3587786259541985	-89.0	0.1566265060240964	1283.0	9.204819277108435	2034.0	-0.14457831325301207	2059.0	-0.4163636363636364	458.0	-0.015454545454545455	-17.0	-0.22142857142857145	217.0	1.5228926626362813E12	1.522892662642E12	2320.3125	10496.0	0.0	0.0	
-1.5419847328244274	-74.0	1.129770992366412	101.0	1.2213740458015268	-80.0	0.12048192771084337	1284.0	9.19277108433735	2037.0	-0.14457831325301207	2059.0	-0.4163636363636364	458.0	-0.015454545454545455	-17.0	-0.22142857142857145	217.0	1.5228926626401875E12	1.522892662653E12	2324.21875	10624.0	0.0	0.0	
-1.648854961832061	-67.0	1.0229007633587786	108.0	1.1908396946564885	-78.0	0.12048192771084337	1283.0	9.204819277108435	2037.0	-0.13253012048192772	2058.0	-0.41909090909090907	461.0	-0.02090909090909091	-23.0	-0.2163265306122449	212.0	1.5228926626440938E12	1.522892662654E12	2328.125	10752.0	0.0	0.0	
-1.7709923664122136	-51.0	0.7786259541984732	116.0	1.450381679389313	-95.0	0.0963855421686747	1284.0	9.19277108433735	2039.0	-0.12048192771084337	2057.0	-0.41909090909090907	461.0	-0.028181818181818183	-31.0	-0.22244897959183677	218.0	1.522892662648E12	1.522892662662E12	2332.03125	10880.0	0.0	0.0	
-1.7862595419847327	-79.0	1.2061068702290076	117.0	1.3435114503816794	-88.0	0.08433734939759037	1283.0	9.204819277108435	2040.0	-0.12048192771084337	2057.0	-0.4172727272727273	459.0	-0.01090909090909091	-12.0	-0.21938775510204084	215.0	1.5228926626519063E12	1.522892662663E12	2335.9375	11008.0	0.0	0.0	
-1.7404580152671756	-69.0	1.0534351145038168	114.0	1.3129770992366412	-86.0	0.08433734939759037	1282.0	9.216867469879519	2040.0	-0.0963855421686747	2055.0	-0.41	451.0	-0.004545454545454545	-5.0	-0.21530612244897962	211.0	1.5228926626558125E12	1.522892662664E12	2339.84375	11136.0	0.0	0.0	
-1.6335877862595418	-61.0	0.9312977099236641	107.0	1.3129770992366412	-86.0	0.060240963855421686	1283.0	9.204819277108435	2042.0	-0.0963855421686747	2055.0	-0.4218181818181818	464.0	-0.025454545454545455	-28.0	-0.22244897959183677	218.0	1.5228926626597188E12	1.522892662665E12	2343.75	11264.0	0.0	0.0	
-1.8473282442748091	-76.0	1.1603053435114503	121.0	1.4961832061068703	-98.0	0.08433734939759037	1284.0	9.19277108433735	2040.0	-0.07228915662650603	2053.0	-0.41909090909090907	461.0	-0.01090909090909091	-12.0	-0.22448979591836737	220.0	1.522892662663625E12	1.522892662675E12	2347.65625	11392.0	0.0	0.0	
-1.7862595419847327	-73.0	1.114503816793893	117.0	1.3129770992366412	-86.0	0.10843373493975904	1284.0	9.19277108433735	2038.0	-0.024096385542168676	2049.0	-0.41909090909090907	461.0	-0.01090909090909091	-12.0	-0.22448979591836737	220.0	1.5228926626675313E12	1.522892662676E12	2351.5625	11520.0	0.0	0.0	
-1.7099236641221374	-67.0	1.0229007633587786	112.0	1.2213740458015268	-80.0	0.12048192771084337	1284.0	9.19277108433735	2037.0	0.024096385542168676	2045.0	-0.4209090909090909	463.0	-0.02181818181818182	-24.0	-0.2163265306122449	212.0	1.5228926626714375E12	1.522892662678E12	2355.46875	11648.0	0.0	0.0	
-1.9389312977099236	-62.0	0.9465648854961831	127.0	1.2671755725190839	-83.0	0.0963855421686747	1285.0	9.180722891566266	2039.0	0.024096385542168676	2045.0	-0.4218181818181818	464.0	-0.03	-33.0	-0.22346938775510206	219.0	1.5228926626753438E12	1.522892662684E12	2359.375	11776.0	0.0	0.0	
-1.7557251908396947	-74.0	1.129770992366412	115.0	1.1603053435114503	-76.0	0.060240963855421686	1283.0	9.204819277108435	2042.0	0.060240963855421686	2042.0	-0.42	462.0	-0.01818181818181818	-20.0	-0.22346938775510206	219.0	1.52289266267925E12	1.522892662685E12	2363.28125	11904.0	0.0	0.0	
-1.83206106870229	-76.0	1.1603053435114503	120.0	0.9923664122137404	-65.0	0.012048192771084338	1284.0	9.19277108433735	2046.0	0.08433734939759037	2040.0	-0.42	462.0	-0.025454545454545455	-28.0	-0.22142857142857145	217.0	1.5228926626831563E12	1.522892662686E12	2367.1875	12032.0	0.0	0.0	
-1.9389312977099236	-57.0	0.8702290076335878	127.0	1.2366412213740459	-81.0	-0.03614457831325302	1285.0	9.180722891566266	2050.0	0.14457831325301207	2035.0	-0.42	462.0	-0.026363636363636363	-29.0	-0.22448979591836737	220.0	1.5228926626870625E12	1.522892662702E12	2371.09375	12160.0	0.0	0.0	
-1.8778625954198473	-73.0	1.114503816793893	123.0	1.2061068702290076	-79.0	-0.07228915662650603	1284.0	9.19277108433735	2053.0	0.1566265060240964	2034.0	-0.41454545454545455	456.0	-0.014545454545454545	-16.0	-0.22346938775510206	219.0	1.5228926626909688E12	1.522892662703E12	2375.0	12288.0	0.0	0.0	
-1.83206106870229	-59.0	0.9007633587786259	120.0	1.2519083969465647	-82.0	-0.10843373493975904	1283.0	9.204819277108435	2056.0	0.16867469879518074	2033.0	-0.41454545454545455	456.0	-0.014545454545454545	-16.0	-0.22346938775510206	219.0	1.522892662694875E12	1.522892662704E12	2378.90625	12416.0	0.0	0.0	
-1.7709923664122136	-56.0	0.8549618320610687	116.0	1.3282442748091603	-87.0	-0.0963855421686747	1284.0	9.19277108433735	2055.0	0.18072289156626506	2032.0	-0.4172727272727273	459.0	-0.02727272727272727	-30.0	-0.22142857142857145	217.0	1.5228926626987813E12	1.522892662714E12	2382.8125	12544.0	0.0	0.0	
-1.4961832061068703	-66.0	1.0076335877862594	98.0	1.3587786259541985	-89.0	-0.10843373493975904	1284.0	9.19277108433735	2056.0	0.1927710843373494	2031.0	-0.4172727272727273	459.0	-0.015454545454545455	-17.0	-0.2142857142857143	210.0	1.5228926627026875E12	1.522892662716E12	2386.71875	12672.0	0.0	0.0	
-1.4961832061068703	-34.0	0.5190839694656488	98.0	1.114503816793893	-73.0	-0.08433734939759037	1284.0	9.19277108433735	2054.0	0.1927710843373494	2031.0	-0.41454545454545455	456.0	-0.019090909090909092	-21.0	-0.22653061224489798	222.0	1.5228926627065938E12	1.522892662717E12	2390.625	12800.0	0.0	0.0	
-1.5114503816793892	-52.0	0.7938931297709924	99.0	1.465648854961832	-96.0	-0.03614457831325302	1286.0	9.168674698795181	2050.0	0.18072289156626506	2032.0	-0.4172727272727273	459.0	-0.026363636363636363	-29.0	-0.22244897959183677	218.0	1.5228926627105E12	1.522892662755E12	2394.53125	12928.0	0.0	0.0	
-1.4045801526717556	-40.0	0.6106870229007634	92.0	1.3282442748091603	-87.0	-0.024096385542168676	1286.0	9.168674698795181	2049.0	0.1927710843373494	2031.0	-0.41	451.0	-0.02090909090909091	-23.0	-0.22142857142857145	217.0	1.5228926627144063E12	1.522892662757E12	2398.4375	13056.0	0.0	0.0	
-1.3129770992366412	-45.0	0.6870229007633587	86.0	1.4809160305343512	-97.0	0.0	1284.0	9.19277108433735	2047.0	0.18072289156626506	2032.0	-0.41454545454545455	456.0	-0.015454545454545455	-17.0	-0.22244897959183677	218.0	1.5228926627183125E12	1.522892662758E12	2402.34375	13184.0	0.0	0.0	
-1.5114503816793892	-48.0	0.732824427480916	99.0	1.5877862595419847	-104.0	0.0	1283.0	9.204819277108435	2047.0	0.1566265060240964	2034.0	-0.41454545454545455	456.0	-0.015454545454545455	-17.0	-0.22244897959183677	218.0	1.5228926627222188E12	1.52289266276E12	2406.25	13312.0	0.0	0.0	
-1.2366412213740459	-41.0	0.6259541984732824	81.0	1.450381679389313	-95.0	-0.012048192771084338	1284.0	9.19277108433735	2048.0	0.18072289156626506	2032.0	-0.4172727272727273	459.0	-0.028181818181818183	-31.0	-0.22040816326530616	216.0	1.522892662726125E12	1.522892662761E12	2410.15625	13440.0	0.0	0.0	
-1.2671755725190839	-38.0	0.5801526717557252	83.0	1.4961832061068703	-98.0	-0.03614457831325302	1283.0	9.204819277108435	2050.0	0.1566265060240964	2034.0	-0.41818181818181815	460.0	-0.019090909090909092	-21.0	-0.2163265306122449	212.0	1.5228926627300313E12	1.522892662765E12	2414.0625	13568.0	0.0	0.0	
-1.1450381679389312	-39.0	0.5954198473282443	75.0	1.4961832061068703	-98.0	-0.03614457831325302	1284.0	9.19277108433735	2050.0	0.13253012048192772	2036.0	-0.4172727272727273	459.0	-0.014545454545454545	-16.0	-0.22551020408163266	221.0	1.5228926627339375E12	1.522892662766E12	2417.96875	13696.0	0.0	0.0	
-1.0229007633587786	-38.0	0.5801526717557252	67.0	1.4198473282442747	-93.0	-0.024096385542168676	1283.0	9.204819277108435	2049.0	0.10843373493975904	2038.0	-0.42	462.0	-0.02727272727272727	-30.0	-0.22040816326530616	216.0	1.5228926627378438E12	1.522892662766E12	2421.875	13824.0	0.0	0.0	
-1.282442748091603	-35.0	0.5343511450381679	84.0	1.6793893129770991	-110.0	0.03614457831325302	1284.0	9.19277108433735	2044.0	0.07228915662650603	2041.0	-0.41	451.0	-0.016363636363636365	-18.0	-0.22551020408163266	221.0	1.52289266274175E12	1.522892662767E12	2425.78125	13952.0	0.0	0.0	
-1.0229007633587786	-43.0	0.6564885496183206	67.0	1.5725190839694656	-103.0	0.04819277108433735	1284.0	9.19277108433735	2043.0	0.04819277108433735	2043.0	-0.41	451.0	-0.02090909090909091	-23.0	-0.22142857142857145	217.0	1.5228926627456563E12	1.522892662769E12	2429.6875	14080.0	0.0	0.0	
-1.083969465648855	-54.0	0.8244274809160305	71.0	1.6946564885496183	-111.0	0.03614457831325302	1285.0	9.180722891566266	2044.0	0.024096385542168676	2045.0	-0.4172727272727273	459.0	-0.02090909090909091	-23.0	-0.22142857142857145	217.0	1.5228926627495625E12	1.52289266277E12	2433.59375	14208.0	0.0	0.0	
-1.3282442748091603	-53.0	0.8091603053435115	87.0	1.5419847328244274	-101.0	0.012048192771084338	1285.0	9.180722891566266	2046.0	0.024096385542168676	2045.0	-0.41909090909090907	461.0	-0.026363636363636363	-29.0	-0.21734693877551023	213.0	1.5228926627534688E12	1.52289266277E12	2437.5	14336.0	0.0	0.0	
-1.2671755725190839	-42.0	0.6412213740458015	83.0	1.5725190839694656	-103.0	-0.024096385542168676	1283.0	9.204819277108435	2049.0	0.012048192771084338	2046.0	-0.41	451.0	-0.01818181818181818	-20.0	-0.22551020408163266	221.0	1.522892662757375E12	1.522892662771E12	2441.40625	14464.0	0.0	0.0	
-0.9312977099236641	-43.0	0.6564885496183206	61.0	1.5267175572519083	-100.0	-0.04819277108433735	1284.0	9.19277108433735	2051.0	0.012048192771084338	2046.0	-0.4163636363636364	458.0	-0.02090909090909091	-23.0	-0.21938775510204084	215.0	1.5228926627612813E12	1.522892662771E12	2445.3125	14592.0	0.0	0.0	
-1.129770992366412	-40.0	0.6106870229007634	74.0	1.5572519083969465	-102.0	-0.03614457831325302	1283.0	9.204819277108435	2050.0	0.08433734939759037	2040.0	-0.41909090909090907	461.0	-0.026363636363636363	-29.0	-0.21938775510204084	215.0	1.5228926627651875E12	1.522892662771E12	2449.21875	14720.0	0.0	0.0	
-1.1755725190839694	-38.0	0.5801526717557252	77.0	1.5419847328244274	-101.0	-0.03614457831325302	1284.0	9.19277108433735	2050.0	0.10843373493975904	2038.0	-0.4163636363636364	458.0	-0.015454545454545455	-17.0	-0.21938775510204084	215.0	1.5228926627690938E12	1.52289266278E12	2453.125	14848.0	0.0	0.0	
-1.083969465648855	-48.0	0.732824427480916	71.0	1.5725190839694656	-103.0	-0.04819277108433735	1284.0	9.19277108433735	2051.0	0.14457831325301207	2035.0	-0.4163636363636364	458.0	-0.015454545454545455	-17.0	-0.21938775510204084	215.0	1.522892662773E12	1.522892662782E12	2457.03125	14976.0	0.0	0.0	
-1.1450381679389312	-45.0	0.6870229007633587	75.0	1.8625954198473282	-122.0	-0.012048192771084338	1283.0	9.204819277108435	2048.0	0.1927710843373494	2031.0	-0.4081818181818182	449.0	-0.014545454545454545	-16.0	-0.22040816326530616	216.0	1.5228926627769063E12	1.522892662783E12	2460.9375	15104.0	0.0	0.0	
-1.0076335877862594	-32.0	0.48854961832061067	66.0	1.5572519083969465	-102.0	0.0	1284.0	9.19277108433735	2047.0	0.21686746987951808	2029.0	-0.42	462.0	-0.01	-11.0	-0.2122448979591837	208.0	1.5228926627808125E12	1.522892662792E12	2464.84375	15232.0	0.0	0.0	
-0.8702290076335878	-29.0	0.4427480916030534	57.0	1.648854961832061	-108.0	0.012048192771084338	1285.0	9.180722891566266	2046.0	0.22891566265060243	2028.0	-0.4127272727272727	454.0	-0.01818181818181818	-20.0	-0.22040816326530616	216.0	1.5228926627847188E12	1.522892662793E12	2468.75	15360.0	0.0	0.0	
-0.7938931297709924	-32.0	0.48854961832061067	52.0	1.5877862595419847	-104.0	0.060240963855421686	1284.0	9.19277108433735	2042.0	0.21686746987951808	2029.0	-0.41818181818181815	460.0	-0.012727272727272728	-14.0	-0.21938775510204084	215.0	1.522892662788625E12	1.522892662794E12	2472.65625	15488.0	0.0	0.0	
-1.0229007633587786	-31.0	0.47328244274809156	67.0	1.5419847328244274	-101.0	0.060240963855421686	1285.0	9.180722891566266	2042.0	0.22891566265060243	2028.0	-0.42	462.0	-0.026363636363636363	-29.0	-0.22040816326530616	216.0	1.5228926627925313E12	1.522892662806E12	2476.5625	15616.0	0.0	0.0	
-0.732824427480916	-23.0	0.3511450381679389	48.0	1.7099236641221374	-112.0	0.07228915662650603	1285.0	9.180722891566266	2041.0	0.22891566265060243	2028.0	-0.41363636363636364	455.0	-0.011818181818181818	-13.0	-0.21734693877551023	213.0	1.5228926627964375E12	1.522892662807E12	2480.46875	15744.0	0.0	0.0	
-0.7175572519083969	-37.0	0.564885496183206	47.0	1.7099236641221374	-112.0	0.04819277108433735	1284.0	9.19277108433735	2043.0	0.20481927710843376	2030.0	-0.41363636363636364	455.0	-0.011818181818181818	-13.0	-0.21734693877551023	213.0	1.5228926628003438E12	1.522892662808E12	2484.375	15872.0	0.0	0.0	
-0.7480916030534351	-24.0	0.366412213740458	49.0	1.66412213740458	-109.0	-0.012048192771084338	1284.0	9.19277108433735	2048.0	0.1927710843373494	2031.0	-0.4172727272727273	459.0	-0.012727272727272728	-14.0	-0.22040816326530616	216.0	1.52289266280425E12	1.522892662809E12	2488.28125	16000.0	0.0	0.0	
-0.7175572519083969	-43.0	0.6564885496183206	47.0	1.5419847328244274	-101.0	0.0	1282.0	9.216867469879519	2047.0	0.20481927710843376	2030.0	-0.4081818181818182	449.0	-0.008181818181818182	-9.0	-0.22551020408163266	221.0	1.5228926628081563E12	1.522892662817E12	2492.1875	16128.0	0.0	0.0	
-0.7022900763358778	-24.0	0.366412213740458	46.0	1.6793893129770991	-110.0	0.012048192771084338	1284.0	9.19277108433735	2046.0	0.18072289156626506	2032.0	-0.4118181818181818	453.0	-0.019090909090909092	-21.0	-0.22448979591836737	220.0	1.5228926628120625E12	1.522892662818E12	2496.09375	16256.0	0.0	0.0	
-0.564885496183206	-24.0	0.366412213740458	37.0	1.6946564885496183	-111.0	0.04819277108433735	1284.0	9.19277108433735	2043.0	0.1566265060240964	2034.0	-0.4172727272727273	459.0	-0.013636363636363636	-15.0	-0.22142857142857145	217.0	1.5228926628159688E12	1.522892662819E12	2500.0	16384.0	0.0	0.0	
-0.5038167938931297	-8.0	0.12213740458015267	33.0	1.6793893129770991	-110.0	0.0963855421686747	1284.0	9.19277108433735	2039.0	0.14457831325301207	2035.0	-0.4163636363636364	458.0	-0.01	-11.0	-0.213265306122449	209.0	1.522892662819875E12	1.522892662832E12	2503.90625	16512.0	0.0	0.0	
-0.33587786259541985	-30.0	0.4580152671755725	22.0	1.4961832061068703	-98.0	0.0963855421686747	1285.0	9.180722891566266	2039.0	0.14457831325301207	2035.0	-0.4127272727272727	454.0	-0.02090909090909091	-23.0	-0.22346938775510206	219.0	1.5228926628237813E12	1.522892662833E12	2507.8125	16640.0	0.0	0.0	
-0.5343511450381679	-31.0	0.47328244274809156	35.0	1.4045801526717556	-92.0	0.0963855421686747	1284.0	9.19277108433735	2039.0	0.12048192771084337	2037.0	-0.4127272727272727	454.0	-0.02090909090909091	-23.0	-0.22346938775510206	219.0	1.5228926628276875E12	1.522892662834E12	2511.71875	16768.0	0.0	0.0	
-0.5190839694656488	-21.0	0.32061068702290074	34.0	1.7251908396946565	-113.0	0.10843373493975904	1285.0	9.180722891566266	2038.0	0.10843373493975904	2038.0	-0.41818181818181815	460.0	-0.013636363636363636	-15.0	-0.21836734693877552	214.0	1.5228926628315938E12	1.52289266284E12	2515.625	16896.0	0.0	0.0	
-0.549618320610687	-19.0	0.2900763358778626	36.0	1.5114503816793892	-99.0	0.060240963855421686	1284.0	9.19277108433735	2042.0	0.12048192771084337	2037.0	-0.41909090909090907	461.0	-0.028181818181818183	-31.0	-0.22142857142857145	217.0	1.5228926628355E12	1.522892662841E12	2519.53125	17024.0	0.0	0.0	
-0.48854961832061067	-15.0	0.22900763358778625	32.0	1.8015267175572518	-118.0	0.04819277108433735	1285.0	9.180722891566266	2043.0	0.13253012048192772	2036.0	-0.41454545454545455	456.0	-0.024545454545454544	-27.0	-0.22448979591836737	220.0	1.5228926628394063E12	1.522892662842E12	2523.4375	17152.0	0.0	0.0	
-0.24427480916030533	-20.0	0.3053435114503817	16.0	1.5114503816793892	-99.0	0.04819277108433735	1285.0	9.180722891566266	2043.0	0.10843373493975904	2038.0	-0.41909090909090907	461.0	-0.014545454545454545	-16.0	-0.21938775510204084	215.0	1.5228926628433125E12	1.522892662855E12	2527.34375	17280.0	0.0	0.0	
-0.22900763358778625	-28.0	0.42748091603053434	15.0	1.7251908396946565	-113.0	0.04819277108433735	1284.0	9.19277108433735	2043.0	0.10843373493975904	2038.0	-0.4218181818181818	464.0	-0.019090909090909092	-21.0	-0.21938775510204084	215.0	1.5228926628472188E12	1.522892662856E12	2531.25	17408.0	0.0	0.0	
-0.04580152671755725	0.0	0.0	3.0	1.5419847328244274	-101.0	0.08433734939759037	1284.0	9.19277108433735	2040.0	0.07228915662650603	2041.0	-0.4127272727272727	454.0	-0.02	-22.0	-0.21938775510204084	215.0	1.522892662851125E12	1.522892662857E12	2535.15625	17536.0	0.0	0.0	
-0.16793893129770993	-21.0	0.32061068702290074	11.0	1.66412213740458	-109.0	0.0963855421686747	1284.0	9.19277108433735	2039.0	0.024096385542168676	2045.0	-0.4127272727272727	454.0	-0.02	-22.0	-0.21938775510204084	215.0	1.5228926628550313E12	1.522892662865E12	2539.0625	17664.0	0.0	0.0	
-0.2595419847328244	-11.0	0.16793893129770993	17.0	1.648854961832061	-108.0	0.0963855421686747	1283.0	9.204819277108435	2039.0	0.0	2047.0	-0.41818181818181815	460.0	-0.015454545454545455	-17.0	-0.21734693877551023	213.0	1.5228926628589375E12	1.522892662867E12	2542.96875	17792.0	0.0	0.0	
-0.12213740458015267	-20.0	0.3053435114503817	8.0	1.5267175572519083	-100.0	0.08433734939759037	1285.0	9.180722891566266	2040.0	-0.04819277108433735	2051.0	-0.4209090909090909	463.0	-0.026363636363636363	-29.0	-0.22040816326530616	216.0	1.5228926628628438E12	1.522892662868E12	2546.875	17920.0	0.0	0.0	
-0.3511450381679389	-17.0	0.2595419847328244	23.0	1.6030534351145038	-105.0	0.04819277108433735	1283.0	9.204819277108435	2043.0	-0.060240963855421686	2052.0	-0.41545454545454547	457.0	-0.02909090909090909	-32.0	-0.22448979591836737	220.0	1.52289266286675E12	1.522892662873E12	2550.78125	18048.0	0.0	0.0	
-0.3053435114503817	-16.0	0.24427480916030533	20.0	1.7099236641221374	-112.0	0.07228915662650603	1283.0	9.204819277108435	2041.0	-0.04819277108433735	2051.0	-0.4118181818181818	453.0	-0.012727272727272728	-14.0	-0.21938775510204084	215.0	1.5228926628706563E12	1.522892662875E12	2554.6875	18176.0	0.0	0.0	
-0.42748091603053434	-30.0	0.4580152671755725	28.0	1.4809160305343512	-97.0	0.024096385542168676	1283.0	9.204819277108435	2045.0	-0.04819277108433735	2051.0	-0.42	462.0	-0.028181818181818183	-31.0	-0.22040816326530616	216.0	1.5228926628745625E12	1.522892662906E12	2558.59375	18304.0	0.0	0.0	
-0.6870229007633587	-31.0	0.47328244274809156	45.0	1.465648854961832	-96.0	0.0	1284.0	9.19277108433735	2047.0	-0.03614457831325302	2050.0	-0.42	462.0	-0.02181818181818182	-24.0	-0.2163265306122449	212.0	1.5228926628784688E12	1.52289266291E12	2562.5	18432.0	0.0	0.0	
-0.4580152671755725	-33.0	0.5038167938931297	30.0	1.5725190839694656	-103.0	0.03614457831325302	1283.0	9.204819277108435	2044.0	0.0	2047.0	-0.42	462.0	-0.02181818181818182	-24.0	-0.2163265306122449	212.0	1.522892662882375E12	1.522892662912E12	2566.40625	18560.0	0.0	0.0	
-0.183206106870229	-37.0	0.564885496183206	12.0	1.6030534351145038	-105.0	0.04819277108433735	1284.0	9.19277108433735	2043.0	0.0	2047.0	-0.42	462.0	-0.016363636363636365	-18.0	-0.21836734693877552	214.0	1.5228926628862813E12	1.522892662913E12	2570.3125	18688.0	0.0	0.0	
-0.32061068702290074	-37.0	0.564885496183206	21.0	1.4961832061068703	-98.0	0.04819277108433735	1284.0	9.19277108433735	2043.0	0.012048192771084338	2046.0	-0.41545454545454547	457.0	-0.02727272727272727	-30.0	-0.22040816326530616	216.0	1.5228926628901875E12	1.522892662915E12	2574.21875	18816.0	0.0	0.0	
-0.32061068702290074	-33.0	0.5038167938931297	21.0	1.66412213740458	-109.0	0.04819277108433735	1284.0	9.19277108433735	2043.0	0.03614457831325302	2044.0	-0.4163636363636364	458.0	-0.025454545454545455	-28.0	-0.22244897959183677	218.0	1.5228926628940938E12	1.522892662916E12	2578.125	18944.0	0.0	0.0	
-0.12213740458015267	-31.0	0.47328244274809156	8.0	1.5114503816793892	-99.0	0.07228915662650603	1282.0	9.216867469879519	2041.0	0.04819277108433735	2043.0	-0.4172727272727273	459.0	-0.01818181818181818	-20.0	-0.22142857142857145	217.0	1.522892662898E12	1.522892662917E12	2582.03125	19072.0	0.0	0.0	
-0.33587786259541985	-19.0	0.2900763358778626	22.0	1.4809160305343512	-97.0	0.07228915662650603	1283.0	9.204819277108435	2041.0	0.08433734939759037	2040.0	-0.41818181818181815	460.0	-0.028181818181818183	-31.0	-0.22551020408163266	221.0	1.5228926629019063E12	1.522892662918E12	2585.9375	19200.0	0.0	0.0	
-0.2748091603053435	-22.0	0.33587786259541985	18.0	1.5877862595419847	-104.0	0.04819277108433735	1285.0	9.180722891566266	2043.0	0.0963855421686747	2039.0	-0.41818181818181815	460.0	-0.028181818181818183	-31.0	-0.22551020408163266	221.0	1.5228926629058125E12	1.522892662919E12	2589.84375	19328.0	0.0	0.0	
-0.061068702290076333	-20.0	0.3053435114503817	4.0	1.465648854961832	-96.0	0.024096385542168676	1285.0	9.180722891566266	2045.0	0.12048192771084337	2037.0	-0.4163636363636364	458.0	-0.025454545454545455	-28.0	-0.22448979591836737	220.0	1.5228926629097188E12	1.52289266292E12	2593.75	19456.0	0.0	0.0	
-0.3053435114503817	-23.0	0.3511450381679389	20.0	1.4198473282442747	-93.0	0.0	1284.0	9.19277108433735	2047.0	0.14457831325301207	2035.0	-0.42	462.0	-0.017272727272727273	-19.0	-0.22040816326530616	216.0	1.522892662913625E12	1.522892662927E12	2597.65625	19584.0	0.0	0.0	
-0.061068702290076333	-27.0	0.41221374045801523	4.0	1.5725190839694656	-103.0	-0.012048192771084338	1285.0	9.180722891566266	2048.0	0.14457831325301207	2035.0	-0.41909090909090907	461.0	-0.026363636363636363	-29.0	-0.22448979591836737	220.0	1.5228926629175313E12	1.522892662927E12	2601.5625	19712.0	0.0	0.0	
0.04580152671755725	-18.0	0.2748091603053435	-3.0	1.6030534351145038	-105.0	-0.03614457831325302	1284.0	9.19277108433735	2050.0	0.10843373493975904	2038.0	-0.4209090909090909	463.0	-0.016363636363636365	-18.0	-0.22346938775510206	219.0	1.5228926629214375E12	1.522892662931E12	2605.46875	19840.0	0.0	0.0	
0.030534351145038167	-23.0	0.3511450381679389	-2.0	1.465648854961832	-96.0	-0.012048192771084338	1284.0	9.19277108433735	2048.0	0.08433734939759037	2040.0	-0.4127272727272727	454.0	0.0027272727272727275	3.0	-0.22551020408163266	221.0	1.5228926629253438E12	1.522892662942E12	2609.375	19968.0	0.0	0.0	
-0.10687022900763359	-25.0	0.38167938931297707	7.0	1.7557251908396947	-115.0	0.012048192771084338	1286.0	9.168674698795181	2046.0	0.04819277108433735	2043.0	-0.41454545454545455	456.0	-0.00909090909090909	-10.0	-0.2163265306122449	212.0	1.52289266292925E12	1.522892662943E12	2613.28125	20096.0	0.0	0.0	
0.22900763358778625	-22.0	0.33587786259541985	-15.0	1.5419847328244274	-101.0	-0.012048192771084338	1284.0	9.19277108433735	2048.0	0.0	2047.0	-0.41454545454545455	456.0	-0.00909090909090909	-10.0	-0.2163265306122449	212.0	1.5228926629331563E12	1.522892662943E12	2617.1875	20224.0	0.0	0.0	
0.061068702290076333	-21.0	0.32061068702290074	-4.0	1.66412213740458	-109.0	-0.03614457831325302	1285.0	9.180722891566266	2050.0	-0.03614457831325302	2050.0	-0.4118181818181818	453.0	-0.019090909090909092	-21.0	-0.22142857142857145	217.0	1.5228926629370625E12	1.522892662948E12	2621.09375	20352.0	0.0	0.0	
-0.061068702290076333	-16.0	0.24427480916030533	4.0	1.5725190839694656	-103.0	-0.024096385542168676	1284.0	9.19277108433735	2049.0	-0.03614457831325302	2050.0	-0.41909090909090907	461.0	-0.019090909090909092	-21.0	-0.22040816326530616	216.0	1.5228926629409688E12	1.522892662948E12	2625.0	20480.0	0.0	0.0	
0.24427480916030533	-14.0	0.21374045801526717	-16.0	1.6946564885496183	-111.0	-0.012048192771084338	1285.0	9.180722891566266	2048.0	-0.060240963855421686	2052.0	-0.41909090909090907	461.0	-0.02	-22.0	-0.22040816326530616	216.0	1.522892662944875E12	1.522892662949E12	2628.90625	20608.0	0.0	0.0	
0.07633587786259542	-6.0	0.0916030534351145	-5.0	1.6335877862595418	-107.0	0.03614457831325302	1285.0	9.180722891566266	2044.0	-0.07228915662650603	2053.0	-0.4127272727272727	454.0	-0.01818181818181818	-20.0	-0.21938775510204084	215.0	1.5228926629487813E12	1.52289266296E12	2632.8125	20736.0	0.0	0.0	
0.04580152671755725	-8.0	0.12213740458015267	-3.0	1.7709923664122136	-116.0	0.060240963855421686	1282.0	9.216867469879519	2042.0	-0.10843373493975904	2056.0	-0.42272727272727273	465.0	-0.01818181818181818	-20.0	-0.21938775510204084	215.0	1.5228926629526875E12	1.522892662962E12	2636.71875	20864.0	0.0	0.0	
0.04580152671755725	-10.0	0.15267175572519084	-3.0	1.5877862595419847	-104.0	0.08433734939759037	1284.0	9.19277108433735	2040.0	-0.10843373493975904	2056.0	-0.41909090909090907	461.0	-0.028181818181818183	-31.0	-0.22244897959183677	218.0	1.5228926629565938E12	1.522892662963E12	2640.625	20992.0	0.0	0.0	
-0.0916030534351145	-24.0	0.366412213740458	6.0	1.816793893129771	-119.0	0.10843373493975904	1284.0	9.19277108433735	2038.0	-0.13253012048192772	2058.0	-0.41909090909090907	461.0	-0.028181818181818183	-31.0	-0.22244897959183677	218.0	1.5228926629605E12	1.52289266297E12	2644.53125	21120.0	0.0	0.0	
0.0	-19.0	0.2900763358778626	0.0	1.5114503816793892	-99.0	0.13253012048192772	1284.0	9.19277108433735	2036.0	-0.13253012048192772	2058.0	-0.4172727272727273	459.0	-0.02181818181818182	-24.0	-0.21938775510204084	215.0	1.5228926629644063E12	1.522892662971E12	2648.4375	21248.0	0.0	0.0	
0.061068702290076333	-31.0	0.47328244274809156	-4.0	1.8015267175572518	-118.0	0.10843373493975904	1284.0	9.19277108433735	2038.0	-0.13253012048192772	2058.0	-0.4218181818181818	464.0	-0.02181818181818182	-24.0	-0.21734693877551023	213.0	1.5228926629683125E12	1.522892662972E12	2652.34375	21376.0	0.0	0.0	
-0.13740458015267176	-23.0	0.3511450381679389	9.0	1.450381679389313	-95.0	0.12048192771084337	1285.0	9.180722891566266	2037.0	-0.14457831325301207	2059.0	-0.41818181818181815	460.0	-0.02727272727272727	-30.0	-0.22551020408163266	221.0	1.5228926629722188E12	1.522892662984E12	2656.25	21504.0	0.0	0.0	
0.061068702290076333	-41.0	0.6259541984732824	-4.0	1.6335877862595418	-107.0	0.0963855421686747	1284.0	9.19277108433735	2039.0	-0.12048192771084337	2057.0	-0.41909090909090907	461.0	-0.01818181818181818	-20.0	-0.22142857142857145	217.0	1.522892662976125E12	1.522892662985E12	2660.15625	21632.0	0.0	0.0	
-0.015267175572519083	-33.0	0.5038167938931297	1.0	1.5725190839694656	-103.0	0.0963855421686747	1283.0	9.204819277108435	2039.0	-0.12048192771084337	2057.0	-0.4209090909090909	463.0	-0.02090909090909091	-23.0	-0.2163265306122449	212.0	1.5228926629800313E12	1.522892662991E12	2664.0625	21760.0	0.0	0.0	
-0.183206106870229	-46.0	0.7022900763358778	12.0	1.5419847328244274	-101.0	0.04819277108433735	1285.0	9.180722891566266	2043.0	-0.10843373493975904	2056.0	-0.4172727272727273	459.0	-0.01	-11.0	-0.21938775510204084	215.0	1.5228926629839375E12	1.522892662996E12	2667.96875	21888.0	0.0	0.0	
-0.2595419847328244	-45.0	0.6870229007633587	17.0	1.618320610687023	-106.0	0.012048192771084338	1284.0	9.19277108433735	2046.0	-0.13253012048192772	2058.0	-0.4172727272727273	459.0	-0.01	-11.0	-0.21938775510204084	215.0	1.5228926629878438E12	1.522892662998E12	2671.875	22016.0	0.0	0.0	
-0.2900763358778626	-25.0	0.38167938931297707	19.0	1.7404580152671756	-114.0	0.0	1284.0	9.19277108433735	2047.0	-0.14457831325301207	2059.0	-0.41454545454545455	456.0	-0.014545454545454545	-16.0	-0.21938775510204084	215.0	1.52289266299175E12	1.522892662998E12	2675.78125	22144.0	0.0	0.0	
-0.13740458015267176	-33.0	0.5038167938931297	9.0	1.6335877862595418	-107.0	-0.024096385542168676	1283.0	9.204819277108435	2049.0	-0.13253012048192772	2058.0	-0.4209090909090909	463.0	-0.022727272727272728	-25.0	-0.21836734693877552	214.0	1.5228926629956563E12	1.522892663014E12	2679.6875	22272.0	0.0	0.0	
-0.21374045801526717	-27.0	0.41221374045801523	14.0	1.5114503816793892	-99.0	-0.04819277108433735	1286.0	9.168674698795181	2051.0	-0.14457831325301207	2059.0	-0.4209090909090909	463.0	-0.026363636363636363	-29.0	-0.22244897959183677	218.0	1.5228926629995625E12	1.522892663014E12	2683.59375	22400.0	0.0	0.0	
-0.24427480916030533	-26.0	0.3969465648854962	16.0	1.7251908396946565	-113.0	-0.04819277108433735	1284.0	9.19277108433735	2051.0	-0.12048192771084337	2057.0	-0.4172727272727273	459.0	-0.013636363636363636	-15.0	-0.22142857142857145	217.0	1.5228926630034688E12	1.522892663014E12	2687.5	22528.0	0.0	0.0	
-0.183206106870229	-19.0	0.2900763358778626	12.0	1.5114503816793892	-99.0	-0.04819277108433735	1284.0	9.19277108433735	2051.0	-0.10843373493975904	2056.0	-0.41	451.0	-0.02090909090909091	-23.0	-0.21734693877551023	213.0	1.522892663007375E12	1.522892663017E12	2691.40625	22656.0	0.0	0.0	
-0.2595419847328244	-17.0	0.2595419847328244	17.0	1.7709923664122136	-116.0	-0.04819277108433735	1285.0	9.180722891566266	2051.0	-0.0963855421686747	2055.0	-0.4209090909090909	463.0	-0.02727272727272727	-30.0	-0.22346938775510206	219.0	1.5228926630112813E12	1.522892663017E12	2695.3125	22784.0	0.0	0.0	
-0.32061068702290074	-21.0	0.32061068702290074	21.0	1.8778625954198473	-123.0	-0.04819277108433735	1284.0	9.19277108433735	2051.0	-0.10843373493975904	2056.0	-0.4209090909090909	463.0	-0.02727272727272727	-30.0	-0.22346938775510206	219.0	1.5228926630151875E12	1.522892663018E12	2699.21875	22912.0	0.0	0.0	
-0.38167938931297707	-22.0	0.33587786259541985	25.0	1.8625954198473282	-122.0	-0.03614457831325302	1285.0	9.180722891566266	2050.0	-0.10843373493975904	2056.0	-0.41545454545454547	457.0	-0.012727272727272728	-14.0	-0.22040816326530616	216.0	1.5228926630190938E12	1.522892663064E12	2703.125	23040.0	0.0	0.0	
-0.2595419847328244	-14.0	0.21374045801526717	17.0	1.6793893129770991	-110.0	-0.012048192771084338	1285.0	9.180722891566266	2048.0	-0.12048192771084337	2057.0	-0.42272727272727273	465.0	-0.028181818181818183	-31.0	-0.22142857142857145	217.0	1.522892663023E12	1.522892663065E12	2707.03125	23168.0	0.0	0.0	
-0.24427480916030533	-28.0	0.42748091603053434	16.0	1.816793893129771	-119.0	-0.012048192771084338	1284.0	9.19277108433735	2048.0	-0.13253012048192772	2058.0	-0.4218181818181818	464.0	-0.022727272727272728	-25.0	-0.22142857142857145	217.0	1.5228926630269063E12	1.522892663066E12	2710.9375	23296.0	0.0	0.0	
-0.32061068702290074	-30.0	0.4580152671755725	21.0	1.8931297709923662	-124.0	0.03614457831325302	1283.0	9.204819277108435	2044.0	-0.13253012048192772	2058.0	-0.40636363636363637	447.0	-0.01818181818181818	-20.0	-0.21938775510204084	215.0	1.5228926630308125E12	1.522892663066E12	2714.84375	23424.0	0.0	0.0	
-0.33587786259541985	-28.0	0.42748091603053434	22.0	1.816793893129771	-119.0	0.060240963855421686	1282.0	9.216867469879519	2042.0	-0.10843373493975904	2056.0	-0.4163636363636364	458.0	-0.028181818181818183	-31.0	-0.21734693877551023	213.0	1.5228926630347188E12	1.522892663067E12	2718.75	23552.0	0.0	0.0	
-0.22900763358778625	-31.0	0.47328244274809156	15.0	1.9389312977099236	-127.0	0.08433734939759037	1283.0	9.204819277108435	2040.0	-0.10843373493975904	2056.0	-0.4163636363636364	458.0	-0.02909090909090909	-32.0	-0.22244897959183677	218.0	1.522892663038625E12	1.522892663071E12	2722.65625	23680.0	0.0	0.0	
-0.4427480916030534	-22.0	0.33587786259541985	29.0	1.7709923664122136	-116.0	0.13253012048192772	1284.0	9.19277108433735	2036.0	-0.0963855421686747	2055.0	-0.41909090909090907	461.0	-0.02909090909090909	-32.0	-0.22244897959183677	218.0	1.5228926630425313E12	1.522892663071E12	2726.5625	23808.0	0.0	0.0	
-0.24427480916030533	-23.0	0.3511450381679389	16.0	1.6335877862595418	-107.0	0.18072289156626506	1284.0	9.19277108433735	2032.0	-0.08433734939759037	2054.0	-0.41818181818181815	460.0	-0.01	-11.0	-0.2142857142857143	210.0	1.5228926630464375E12	1.522892663071E12	2730.46875	23936.0	0.0	0.0	
-0.2748091603053435	-21.0	0.32061068702290074	18.0	1.6793893129770991	-110.0	0.21686746987951808	1283.0	9.204819277108435	2029.0	-0.0963855421686747	2055.0	-0.42	462.0	-0.02909090909090909	-32.0	-0.22040816326530616	216.0	1.5228926630503438E12	1.522892663072E12	2734.375	24064.0	0.0	0.0	
-0.22900763358778625	-31.0	0.47328244274809156	15.0	1.66412213740458	-109.0	0.18072289156626506	1283.0	9.204819277108435	2032.0	-0.14457831325301207	2059.0	-0.4163636363636364	458.0	-0.01818181818181818	-20.0	-0.22142857142857145	217.0	1.52289266305425E12	1.522892663075E12	2738.28125	24192.0	0.0	0.0	
-0.183206106870229	-26.0	0.3969465648854962	12.0	1.5572519083969465	-102.0	0.18072289156626506	1284.0	9.19277108433735	2032.0	-0.18072289156626506	2062.0	-0.4163636363636364	458.0	-0.00909090909090909	-10.0	-0.21836734693877552	214.0	1.5228926630581563E12	1.522892663076E12	2742.1875	24320.0	0.0	0.0	
-0.0916030534351145	-26.0	0.3969465648854962	6.0	1.5572519083969465	-102.0	0.13253012048192772	1285.0	9.180722891566266	2036.0	-0.20481927710843376	2064.0	-0.4209090909090909	463.0	-0.028181818181818183	-31.0	-0.21938775510204084	215.0	1.5228926630620625E12	1.522892663076E12	2746.09375	24448.0	0.0	0.0	
-0.366412213740458	-41.0	0.6259541984732824	24.0	1.6793893129770991	-110.0	0.12048192771084337	1284.0	9.19277108433735	2037.0	-0.22891566265060243	2066.0	-0.4209090909090909	463.0	-0.028181818181818183	-31.0	-0.21938775510204084	215.0	1.5228926630659688E12	1.522892663076E12	2750.0	24576.0	0.0	0.0	
-0.38167938931297707	-40.0	0.6106870229007634	25.0	1.465648854961832	-96.0	0.10843373493975904	1281.0	9.228915662650603	2038.0	-0.22891566265060243	2066.0	-0.4127272727272727	454.0	-0.014545454545454545	-16.0	-0.22142857142857145	217.0	1.522892663069875E12	1.522892663076E12	2753.90625	24704.0	0.0	0.0	
-0.2900763358778626	-41.0	0.6259541984732824	19.0	1.7709923664122136	-116.0	0.0963855421686747	1285.0	9.180722891566266	2039.0	-0.22891566265060243	2066.0	-0.41454545454545455	456.0	-0.02090909090909091	-23.0	-0.22244897959183677	218.0	1.5228926630737813E12	1.522892663076E12	2757.8125	24832.0	0.0	0.0	
-0.549618320610687	-43.0	0.6564885496183206	36.0	1.66412213740458	-109.0	0.07228915662650603	1283.0	9.204819277108435	2041.0	-0.20481927710843376	2064.0	-0.42272727272727273	465.0	-0.031818181818181815	-35.0	-0.21938775510204084	215.0	1.5228926630776875E12	1.522892663082E12	2761.71875	24960.0	0.0	0.0	
-0.549618320610687	-34.0	0.5190839694656488	36.0	1.648854961832061	-108.0	0.07228915662650603	1285.0	9.180722891566266	2041.0	-0.22891566265060243	2066.0	-0.4172727272727273	459.0	-0.01090909090909091	-12.0	-0.2122448979591837	208.0	1.5228926630815938E12	1.522892663092E12	2765.625	25088.0	0.0	0.0	
-0.7175572519083969	-39.0	0.5954198473282443	47.0	1.4351145038167938	-94.0	0.07228915662650603	1284.0	9.19277108433735	2041.0	-0.22891566265060243	2066.0	-0.42363636363636364	466.0	-0.02090909090909091	-23.0	-0.21734693877551023	213.0	1.5228926630855E12	1.522892663092E12	2769.53125	25216.0	0.0	0.0	
-0.4427480916030534	-38.0	0.5801526717557252	29.0	1.3587786259541985	-89.0	0.08433734939759037	1285.0	9.180722891566266	2040.0	-0.22891566265060243	2066.0	-0.4218181818181818	464.0	-0.02727272727272727	-30.0	-0.2163265306122449	212.0	1.5228926630894063E12	1.522892663093E12	2773.4375	25344.0	0.0	0.0	
-0.5343511450381679	-38.0	0.5801526717557252	35.0	1.4045801526717556	-92.0	0.07228915662650603	1285.0	9.180722891566266	2041.0	-0.24096385542168675	2067.0	-0.4218181818181818	464.0	-0.02727272727272727	-30.0	-0.2163265306122449	212.0	1.5228926630933125E12	1.522892663104E12	2777.34375	25472.0	0.0	0.0	
-0.7175572519083969	-42.0	0.6412213740458015	47.0	1.4961832061068703	-98.0	0.03614457831325302	1284.0	9.19277108433735	2044.0	-0.22891566265060243	2066.0	-0.4163636363636364	458.0	-0.02090909090909091	-23.0	-0.22040816326530616	216.0	1.5228926630972188E12	1.522892663105E12	2781.25	25600.0	0.0	0.0	
-0.8244274809160305	-37.0	0.564885496183206	54.0	1.5419847328244274	-101.0	0.012048192771084338	1284.0	9.19277108433735	2046.0	-0.20481927710843376	2064.0	-0.41818181818181815	460.0	-0.012727272727272728	-14.0	-0.21734693877551023	213.0	1.522892663101125E12	1.522892663106E12	2785.15625	25728.0	0.0	0.0	
-0.8091603053435115	-39.0	0.5954198473282443	53.0	1.5267175572519083	-100.0	0.0	1285.0	9.180722891566266	2047.0	-0.18072289156626506	2062.0	-0.42272727272727273	465.0	-0.028181818181818183	-31.0	-0.2163265306122449	212.0	1.5228926631050313E12	1.522892663113E12	2789.0625	25856.0	0.0	0.0	
-0.7786259541984732	-47.0	0.7175572519083969	51.0	1.6793893129770991	-110.0	0.012048192771084338	1285.0	9.180722891566266	2046.0	-0.1566265060240964	2060.0	-0.41363636363636364	455.0	-0.02727272727272727	-30.0	-0.21836734693877552	214.0	1.5228926631089375E12	1.522892663115E12	2792.96875	25984.0	0.0	0.0	
-0.8396946564885496	-46.0	0.7022900763358778	55.0	1.7099236641221374	-112.0	0.060240963855421686	1285.0	9.180722891566266	2042.0	-0.14457831325301207	2059.0	-0.4209090909090909	463.0	-0.01090909090909091	-12.0	-0.21836734693877552	214.0	1.5228926631128438E12	1.522892663116E12	2796.875	26112.0	0.0	0.0	
-0.7175572519083969	-43.0	0.6564885496183206	47.0	1.6946564885496183	-111.0	0.10843373493975904	1285.0	9.180722891566266	2038.0	-0.1566265060240964	2060.0	-0.4163636363636364	458.0	-0.01	-11.0	-0.20918367346938777	205.0	1.52289266311675E12	1.522892663133E12	2800.78125	26240.0	0.0	0.0	
-0.5801526717557252	-55.0	0.8396946564885496	38.0	1.66412213740458	-109.0	0.13253012048192772	1284.0	9.19277108433735	2036.0	-0.1566265060240964	2060.0	-0.4163636363636364	458.0	-0.01	-11.0	-0.20918367346938777	205.0	1.5228926631206563E12	1.522892663134E12	2804.6875	26368.0	0.0	0.0	
-0.8091603053435115	-37.0	0.564885496183206	53.0	1.6335877862595418	-107.0	0.10843373493975904	1284.0	9.19277108433735	2038.0	-0.16867469879518074	2061.0	-0.4118181818181818	453.0	-0.01818181818181818	-20.0	-0.21836734693877552	214.0	1.5228926631245625E12	1.522892663135E12	2808.59375	26496.0	0.0	0.0	
-0.8702290076335878	-46.0	0.7022900763358778	57.0	1.5877862595419847	-104.0	0.10843373493975904	1282.0	9.216867469879519	2038.0	-0.14457831325301207	2059.0	-0.4081818181818182	449.0	-0.016363636363636365	-18.0	-0.21938775510204084	215.0	1.5228926631284688E12	1.522892663138E12	2812.5	26624.0	0.0	0.0	
-0.9923664122137404	-47.0	0.7175572519083969	65.0	1.4198473282442747	-93.0	0.0963855421686747	1283.0	9.204819277108435	2039.0	-0.13253012048192772	2058.0	-0.4109090909090909	452.0	-0.02727272727272727	-30.0	-0.21836734693877552	214.0	1.522892663132375E12	1.522892663139E12	2816.40625	26752.0	0.0	0.0	
-0.9007633587786259	-47.0	0.7175572519083969	59.0	1.6335877862595418	-107.0	0.07228915662650603	1285.0	9.180722891566266	2041.0	-0.0963855421686747	2055.0	-0.41363636363636364	455.0	-0.02	-22.0	-0.22040816326530616	216.0	1.5228926631362813E12	1.52289266314E12	2820.3125	26880.0	0.0	0.0	
-0.8091603053435115	-39.0	0.5954198473282443	53.0	1.4961832061068703	-98.0	0.060240963855421686	1284.0	9.19277108433735	2042.0	-0.060240963855421686	2052.0	-0.42	462.0	-0.011818181818181818	-13.0	-0.21530612244897962	211.0	1.5228926631401875E12	1.522892663151E12	2824.21875	27008.0	0.0	0.0	
-0.9312977099236641	-39.0	0.5954198473282443	61.0	1.3893129770992365	-91.0	0.07228915662650603	1285.0	9.180722891566266	2041.0	-0.024096385542168676	2049.0	-0.4118181818181818	453.0	-0.01	-11.0	-0.22142857142857145	217.0	1.5228926631440938E12	1.522892663152E12	2828.125	27136.0	0.0	0.0	
-0.7175572519083969	-50.0	0.7633587786259541	47.0	1.6335877862595418	-107.0	0.07228915662650603	1284.0	9.19277108433735	2041.0	-0.03614457831325302	2050.0	-0.4118181818181818	453.0	-0.01	-11.0	-0.22142857142857145	217.0	1.522892663148E12	1.522892663152E12	2832.03125	27264.0	0.0	0.0	
-0.9312977099236641	-35.0	0.5343511450381679	61.0	1.5572519083969465	-102.0	0.060240963855421686	1285.0	9.180722891566266	2042.0	-0.04819277108433735	2051.0	-0.41454545454545455	456.0	-0.022727272727272728	-25.0	-0.21938775510204084	215.0	1.5228926631519063E12	1.522892663163E12	2835.9375	27392.0	0.0	0.0	
-0.6412213740458015	-40.0	0.6106870229007634	42.0	1.816793893129771	-119.0	0.060240963855421686	1284.0	9.19277108433735	2042.0	-0.07228915662650603	2053.0	-0.4218181818181818	464.0	-0.019090909090909092	-21.0	-0.21836734693877552	214.0	1.5228926631558125E12	1.522892663164E12	2839.84375	27520.0	0.0	0.0	
