left thigh	left thigh	left thigh	left thigh	left thigh	left thigh	left thigh	left thigh	left thigh	left thigh	left thigh	left thigh	left thigh	left thigh	left thigh	left thigh	left thigh	left thigh	left thigh	left thigh	left thigh	left thigh	Annotation	Annotation	
Gyroscope X	Gyroscope X	Gyroscope Y	Gyroscope Y	Gyroscope Z	Gyroscope Z	Low Noise Accelerometer X	Low Noise Accelerometer X	Low Noise Accelerometer Y	Low Noise Accelerometer Y	Low Noise Accelerometer Z	Low Noise Accelerometer Z	Magnetometer X	Magnetometer X	Magnetometer Y	Magnetometer Y	Magnetometer Z	Magnetometer Z	SyncTimestamp	SystemTimestamp	Timestamp	Timestamp	Level	Pulse	
CAL	RAW	CAL	RAW	CAL	RAW	CAL	RAW	CAL	RAW	CAL	RAW	CAL	RAW	CAL	RAW	CAL	RAW	CAL	UNCAL	CAL	RAW	no format	no format	
deg/s	No Units	deg/s	No Units	deg/s	No Units	m/s^2	No Units	m/s^2	No Units	m/s^2	No Units	local flux	No Units	local flux	No Units	local flux	No Units	mSecs	mSecs	mSecs	No Units	no unit	no unit	
-0.24427480916030533	-27.0	0.41221374045801523	16.0	1.816793893129771	-119.0	0.5783132530120483	1285.0	9.180722891566266	1999.0	0.024096385542168676	2045.0	-0.43727272727272726	481.0	-0.024545454545454544	-27.0	-0.22551020408163266	221.0	1.5228924582786563E12	1.522892458312E12	1957.03125	64128.0	0.0	0.0	
-0.42748091603053434	-14.0	0.21374045801526717	28.0	1.7557251908396947	-115.0	0.5783132530120483	1285.0	9.180722891566266	1999.0	-0.024096385542168676	2049.0	-0.44181818181818183	486.0	-0.026363636363636363	-29.0	-0.21938775510204084	215.0	1.5228924582825625E12	1.522892458315E12	1960.9375	64256.0	0.0	0.0	
-0.47328244274809156	1.0	-0.015267175572519083	31.0	1.6793893129770991	-110.0	0.6024096385542169	1284.0	9.19277108433735	1997.0	-0.024096385542168676	2049.0	-0.44181818181818183	486.0	-0.017272727272727273	-19.0	-0.22244897959183677	218.0	1.5228924582864688E12	1.522892458316E12	1964.84375	64384.0	0.0	0.0	
-0.564885496183206	-22.0	0.33587786259541985	37.0	1.4961832061068703	-98.0	0.5903614457831325	1284.0	9.19277108433735	1998.0	-0.060240963855421686	2052.0	-0.44181818181818183	486.0	-0.017272727272727273	-19.0	-0.22244897959183677	218.0	1.522892458290375E12	1.522892458316E12	1968.75	64512.0	0.0	0.0	
-0.3969465648854962	-25.0	0.38167938931297707	26.0	1.6030534351145038	-105.0	0.6144578313253012	1285.0	9.180722891566266	1996.0	-0.07228915662650603	2053.0	-0.44272727272727275	487.0	-0.022727272727272728	-25.0	-0.2285714285714286	224.0	1.5228924582942813E12	1.522892458317E12	1972.65625	64640.0	0.0	0.0	
-0.5954198473282443	-24.0	0.366412213740458	39.0	1.5419847328244274	-101.0	0.6265060240963856	1286.0	9.168674698795181	1995.0	-0.0963855421686747	2055.0	-0.44636363636363635	491.0	-0.03	-33.0	-0.22244897959183677	218.0	1.5228924582981875E12	1.522892458318E12	1976.5625	64768.0	0.0	0.0	
-0.5190839694656488	-39.0	0.5954198473282443	34.0	1.7251908396946565	-113.0	0.6385542168674699	1285.0	9.180722891566266	1994.0	-0.10843373493975904	2056.0	-0.4445454545454545	489.0	-0.03363636363636364	-37.0	-0.2285714285714286	224.0	1.5228924583020938E12	1.522892458318E12	1980.46875	64896.0	0.0	0.0	
-0.7786259541984732	-18.0	0.2748091603053435	51.0	1.816793893129771	-119.0	0.6506024096385542	1284.0	9.19277108433735	1993.0	-0.08433734939759037	2054.0	-0.4409090909090909	485.0	-0.025454545454545455	-28.0	-0.2295918367346939	225.0	1.522892458306E12	1.522892458319E12	1984.375	65024.0	0.0	0.0	
-0.6259541984732824	-36.0	0.549618320610687	41.0	1.5725190839694656	-103.0	0.674698795180723	1284.0	9.19277108433735	1991.0	-0.10843373493975904	2056.0	-0.44363636363636366	488.0	-0.034545454545454546	-38.0	-0.22551020408163266	221.0	1.5228924583099063E12	1.52289245832E12	1988.28125	65152.0	0.0	0.0	
-0.6870229007633587	-31.0	0.47328244274809156	45.0	1.4198473282442747	-93.0	0.6506024096385542	1286.0	9.168674698795181	1993.0	-0.12048192771084337	2057.0	-0.4445454545454545	489.0	-0.035454545454545454	-39.0	-0.2285714285714286	224.0	1.5228924583138125E12	1.522892458327E12	1992.1875	65280.0	0.0	0.0	
-0.6870229007633587	-40.0	0.6106870229007634	45.0	1.3740458015267174	-90.0	0.6265060240963856	1284.0	9.19277108433735	1995.0	-0.14457831325301207	2059.0	-0.4445454545454545	489.0	-0.035454545454545454	-39.0	-0.2285714285714286	224.0	1.5228924583177188E12	1.522892458328E12	1996.09375	65408.0	0.0	0.0	
-0.5343511450381679	-51.0	0.7786259541984732	35.0	1.3893129770992365	-91.0	0.6265060240963856	1284.0	9.19277108433735	1995.0	-0.1566265060240964	2060.0	-0.43	473.0	-0.02090909090909091	-23.0	-0.22448979591836737	220.0	1.522892458321625E12	1.522892458328E12	2000.0	0.0	0.0	0.0	
-0.4580152671755725	-61.0	0.9312977099236641	30.0	1.3893129770992365	-91.0	0.5783132530120483	1284.0	9.19277108433735	1999.0	-0.14457831325301207	2059.0	-0.44	484.0	-0.014545454545454545	-16.0	-0.21836734693877552	214.0	1.5228924583255313E12	1.522892458334E12	2003.90625	128.0	0.0	0.0	
-0.9007633587786259	-49.0	0.7480916030534351	59.0	1.3282442748091603	-87.0	0.5783132530120483	1285.0	9.180722891566266	1999.0	-0.13253012048192772	2058.0	-0.43727272727272726	481.0	-0.03	-33.0	-0.22448979591836737	220.0	1.5228924583294375E12	1.522892458335E12	2007.8125	256.0	0.0	0.0	
-0.7938931297709924	-41.0	0.6259541984732824	52.0	1.3435114503816794	-88.0	0.5421686746987953	1286.0	9.168674698795181	2002.0	-0.13253012048192772	2058.0	-0.44181818181818183	486.0	-0.023636363636363636	-26.0	-0.2295918367346939	225.0	1.5228924583333438E12	1.522892458335E12	2011.71875	384.0	0.0	0.0	
-0.9312977099236641	-61.0	0.9312977099236641	61.0	1.1908396946564885	-78.0	0.5421686746987953	1285.0	9.180722891566266	2002.0	-0.12048192771084337	2057.0	-0.44181818181818183	486.0	-0.016363636363636365	-18.0	-0.2163265306122449	212.0	1.52289245833725E12	1.522892458353E12	2015.625	512.0	0.0	0.0	
-0.7480916030534351	-64.0	0.9770992366412213	49.0	1.1908396946564885	-78.0	0.5421686746987953	1284.0	9.19277108433735	2002.0	-0.0963855421686747	2055.0	-0.44181818181818183	486.0	-0.02909090909090909	-32.0	-0.2163265306122449	212.0	1.5228924583411563E12	1.522892458354E12	2019.53125	640.0	0.0	0.0	
-0.8702290076335878	-53.0	0.8091603053435115	57.0	1.297709923664122	-85.0	0.49397590361445787	1286.0	9.168674698795181	2006.0	-0.0963855421686747	2055.0	-0.4390909090909091	483.0	-0.02909090909090909	-32.0	-0.22653061224489798	222.0	1.5228924583450625E12	1.522892458356E12	2023.4375	768.0	0.0	0.0	
-0.916030534351145	-61.0	0.9312977099236641	60.0	1.1603053435114503	-76.0	0.4819277108433735	1286.0	9.168674698795181	2007.0	-0.07228915662650603	2053.0	-0.4309090909090909	474.0	-0.02181818181818182	-24.0	-0.22653061224489798	222.0	1.5228924583489688E12	1.522892458358E12	2027.34375	896.0	0.0	0.0	
-0.8091603053435115	-53.0	0.8091603053435115	53.0	1.3893129770992365	-91.0	0.46987951807228917	1286.0	9.168674698795181	2008.0	-0.060240963855421686	2052.0	-0.44363636363636366	488.0	-0.03636363636363636	-40.0	-0.22551020408163266	221.0	1.522892458352875E12	1.522892458359E12	2031.25	1024.0	0.0	0.0	
-1.2671755725190839	-39.0	0.5954198473282443	83.0	1.4198473282442747	-93.0	0.5180722891566265	1286.0	9.168674698795181	2004.0	-0.060240963855421686	2052.0	-0.44181818181818183	486.0	-0.02727272727272727	-30.0	-0.22551020408163266	221.0	1.5228924583567813E12	1.52289245836E12	2035.15625	1152.0	0.0	0.0	
-1.2061068702290076	-42.0	0.6412213740458015	79.0	1.4351145038167938	-94.0	0.5421686746987953	1286.0	9.168674698795181	2002.0	-0.03614457831325302	2050.0	-0.44181818181818183	486.0	-0.028181818181818183	-31.0	-0.22244897959183677	218.0	1.5228924583606875E12	1.52289245837E12	2039.0625	1280.0	0.0	0.0	
-1.1908396946564885	-49.0	0.7480916030534351	78.0	1.2671755725190839	-83.0	0.5662650602409639	1286.0	9.168674698795181	2000.0	-0.03614457831325302	2050.0	-0.43727272727272726	481.0	-0.016363636363636365	-18.0	-0.2285714285714286	224.0	1.5228924583645938E12	1.522892458371E12	2042.96875	1408.0	0.0	0.0	
-1.2671755725190839	-59.0	0.9007633587786259	83.0	1.3282442748091603	-87.0	0.5903614457831325	1286.0	9.168674698795181	1998.0	-0.03614457831325302	2050.0	-0.43727272727272726	481.0	-0.016363636363636365	-18.0	-0.2285714285714286	224.0	1.5228924583685E12	1.522892458372E12	2046.875	1536.0	0.0	0.0	
-1.0534351145038168	-43.0	0.6564885496183206	69.0	1.2366412213740459	-81.0	0.5662650602409639	1285.0	9.180722891566266	2000.0	-0.024096385542168676	2049.0	-0.43727272727272726	481.0	-0.025454545454545455	-28.0	-0.22448979591836737	220.0	1.5228924583724063E12	1.522892458383E12	2050.78125	1664.0	0.0	0.0	
-1.083969465648855	-64.0	0.9770992366412213	71.0	1.2519083969465647	-82.0	0.5301204819277109	1284.0	9.19277108433735	2003.0	-0.012048192771084338	2048.0	-0.44	484.0	-0.019090909090909092	-21.0	-0.22346938775510206	219.0	1.5228924583763125E12	1.522892458384E12	2054.6875	1792.0	0.0	0.0	
-1.1755725190839694	-53.0	0.8091603053435115	77.0	1.2061068702290076	-79.0	0.5180722891566265	1284.0	9.19277108433735	2004.0	-0.024096385542168676	2049.0	-0.4445454545454545	489.0	-0.034545454545454546	-38.0	-0.22551020408163266	221.0	1.5228924583802188E12	1.522892458385E12	2058.59375	1920.0	0.0	0.0	
-1.083969465648855	-60.0	0.916030534351145	71.0	1.2061068702290076	-79.0	0.5060240963855422	1286.0	9.168674698795181	2005.0	0.0	2047.0	-0.44272727272727275	487.0	-0.024545454545454544	-27.0	-0.22244897959183677	218.0	1.522892458384125E12	1.522892458395E12	2062.5	2048.0	0.0	0.0	
-1.0534351145038168	-65.0	0.9923664122137404	69.0	1.1908396946564885	-78.0	0.49397590361445787	1285.0	9.180722891566266	2006.0	0.03614457831325302	2044.0	-0.4409090909090909	485.0	-0.02181818181818182	-24.0	-0.22346938775510206	219.0	1.5228924583880313E12	1.522892458396E12	2066.40625	2176.0	0.0	0.0	
-1.114503816793893	-53.0	0.8091603053435115	73.0	1.0687022900763359	-70.0	0.46987951807228917	1285.0	9.180722891566266	2008.0	0.03614457831325302	2044.0	-0.4445454545454545	489.0	-0.035454545454545454	-39.0	-0.22448979591836737	220.0	1.5228924583919375E12	1.522892458397E12	2070.3125	2304.0	0.0	0.0	
-1.1603053435114503	-48.0	0.732824427480916	76.0	1.3129770992366412	-86.0	0.45783132530120485	1286.0	9.168674698795181	2009.0	0.04819277108433735	2043.0	-0.4445454545454545	489.0	-0.035454545454545454	-39.0	-0.22448979591836737	220.0	1.5228924583958438E12	1.522892458408E12	2074.21875	2432.0	0.0	0.0	
-1.0229007633587786	-56.0	0.8549618320610687	67.0	1.1908396946564885	-78.0	0.4096385542168675	1285.0	9.180722891566266	2013.0	0.060240963855421686	2042.0	-0.4381818181818182	482.0	-0.03090909090909091	-34.0	-0.2285714285714286	224.0	1.52289245839975E12	1.522892458408E12	2078.125	2560.0	0.0	0.0	
-1.0534351145038168	-47.0	0.7175572519083969	69.0	1.1603053435114503	-76.0	0.42168674698795183	1287.0	9.156626506024097	2012.0	0.08433734939759037	2040.0	-0.4381818181818182	482.0	-0.03090909090909091	-34.0	-0.2285714285714286	224.0	1.5228924584036563E12	1.522892458409E12	2082.03125	2688.0	0.0	0.0	
-1.1908396946564885	-57.0	0.8702290076335878	78.0	1.3435114503816794	-88.0	0.39759036144578314	1286.0	9.168674698795181	2014.0	0.07228915662650603	2041.0	-0.44	484.0	-0.02727272727272727	-30.0	-0.22244897959183677	218.0	1.5228924584075625E12	1.52289245842E12	2085.9375	2816.0	0.0	0.0	
-0.9923664122137404	-58.0	0.8854961832061068	65.0	1.465648854961832	-96.0	0.4096385542168675	1286.0	9.168674698795181	2013.0	0.08433734939759037	2040.0	-0.4390909090909091	483.0	-0.034545454545454546	-38.0	-0.22653061224489798	222.0	1.5228924584114688E12	1.522892458421E12	2089.84375	2944.0	0.0	0.0	
-1.1603053435114503	-58.0	0.8854961832061068	76.0	1.3435114503816794	-88.0	0.4096385542168675	1285.0	9.180722891566266	2013.0	0.0963855421686747	2039.0	-0.4445454545454545	489.0	-0.023636363636363636	-26.0	-0.22346938775510206	219.0	1.522892458415375E12	1.522892458421E12	2093.75	3072.0	0.0	0.0	
-1.129770992366412	-51.0	0.7786259541984732	74.0	1.4045801526717556	-92.0	0.43373493975903615	1286.0	9.168674698795181	2011.0	0.10843373493975904	2038.0	-0.44181818181818183	486.0	-0.023636363636363636	-26.0	-0.22040816326530616	216.0	1.5228924584192813E12	1.522892458457E12	2097.65625	3200.0	0.0	0.0	
-1.099236641221374	-60.0	0.916030534351145	72.0	1.4045801526717556	-92.0	0.45783132530120485	1286.0	9.168674698795181	2009.0	0.10843373493975904	2038.0	-0.44181818181818183	486.0	-0.023636363636363636	-26.0	-0.22040816326530616	216.0	1.5228924584231875E12	1.522892458458E12	2101.5625	3328.0	0.0	0.0	
-1.0076335877862594	-56.0	0.8549618320610687	66.0	1.3740458015267174	-90.0	0.5060240963855422	1287.0	9.156626506024097	2005.0	0.14457831325301207	2035.0	-0.43363636363636365	477.0	-0.028181818181818183	-31.0	-0.22142857142857145	217.0	1.5228924584270938E12	1.522892458459E12	2105.46875	3456.0	0.0	0.0	
-1.099236641221374	-46.0	0.7022900763358778	72.0	1.3129770992366412	-86.0	0.5180722891566265	1285.0	9.180722891566266	2004.0	0.14457831325301207	2035.0	-0.4445454545454545	489.0	-0.022727272727272728	-25.0	-0.22142857142857145	217.0	1.522892458431E12	1.522892458459E12	2109.375	3584.0	0.0	0.0	
-0.9312977099236641	-55.0	0.8396946564885496	61.0	1.2366412213740459	-81.0	0.5180722891566265	1285.0	9.180722891566266	2004.0	0.14457831325301207	2035.0	-0.4390909090909091	483.0	-0.015454545454545455	-17.0	-0.22244897959183677	218.0	1.5228924584349063E12	1.52289245846E12	2113.28125	3712.0	0.0	0.0	
-0.9007633587786259	-55.0	0.8396946564885496	59.0	1.4351145038167938	-94.0	0.4819277108433735	1286.0	9.168674698795181	2007.0	0.14457831325301207	2035.0	-0.4381818181818182	482.0	-0.034545454545454546	-38.0	-0.22653061224489798	222.0	1.5228924584388125E12	1.522892458461E12	2117.1875	3840.0	0.0	0.0	
-0.7938931297709924	-49.0	0.7480916030534351	52.0	1.1603053435114503	-76.0	0.46987951807228917	1285.0	9.180722891566266	2008.0	0.13253012048192772	2036.0	-0.4445454545454545	489.0	-0.023636363636363636	-26.0	-0.22142857142857145	217.0	1.5228924584427188E12	1.522892458462E12	2121.09375	3968.0	0.0	0.0	
-0.9923664122137404	-41.0	0.6259541984732824	65.0	1.465648854961832	-96.0	0.45783132530120485	1285.0	9.180722891566266	2009.0	0.10843373493975904	2038.0	-0.4409090909090909	485.0	-0.035454545454545454	-39.0	-0.2306122448979592	226.0	1.522892458446625E12	1.522892458463E12	2125.0	4096.0	0.0	0.0	
-0.8702290076335878	-45.0	0.6870229007633587	57.0	1.465648854961832	-96.0	0.4819277108433735	1285.0	9.180722891566266	2007.0	0.13253012048192772	2036.0	-0.4409090909090909	485.0	-0.035454545454545454	-39.0	-0.2306122448979592	226.0	1.5228924584505313E12	1.522892458465E12	2128.90625	4224.0	0.0	0.0	
-0.8396946564885496	-40.0	0.6106870229007634	55.0	1.1908396946564885	-78.0	0.49397590361445787	1287.0	9.156626506024097	2006.0	0.10843373493975904	2038.0	-0.44	484.0	-0.02090909090909091	-23.0	-0.22551020408163266	221.0	1.5228924584544375E12	1.522892458466E12	2132.8125	4352.0	0.0	0.0	
-0.7480916030534351	-37.0	0.564885496183206	49.0	1.282442748091603	-84.0	0.49397590361445787	1285.0	9.180722891566266	2006.0	0.0963855421686747	2039.0	-0.44181818181818183	486.0	-0.024545454545454544	-27.0	-0.22244897959183677	218.0	1.5228924584583438E12	1.522892458467E12	2136.71875	4480.0	0.0	0.0	
-0.7175572519083969	-47.0	0.7175572519083969	47.0	1.2213740458015268	-80.0	0.49397590361445787	1286.0	9.168674698795181	2006.0	0.08433734939759037	2040.0	-0.4381818181818182	482.0	-0.034545454545454546	-38.0	-0.2295918367346939	225.0	1.52289245846225E12	1.522892458468E12	2140.625	4608.0	0.0	0.0	
-0.5038167938931297	-49.0	0.7480916030534351	33.0	1.3129770992366412	-86.0	0.45783132530120485	1285.0	9.180722891566266	2009.0	0.07228915662650603	2041.0	-0.4390909090909091	483.0	-0.022727272727272728	-25.0	-0.22755102040816327	223.0	1.5228924584661563E12	1.52289245848E12	2144.53125	4736.0	0.0	0.0	
-0.6870229007633587	-40.0	0.6106870229007634	45.0	1.4351145038167938	-94.0	0.43373493975903615	1285.0	9.180722891566266	2011.0	0.04819277108433735	2043.0	-0.43727272727272726	481.0	-0.03272727272727273	-36.0	-0.22448979591836737	220.0	1.5228924584700625E12	1.522892458481E12	2148.4375	4864.0	0.0	0.0	
-0.5190839694656488	-36.0	0.549618320610687	34.0	1.2213740458015268	-80.0	0.43373493975903615	1284.0	9.19277108433735	2011.0	0.060240963855421686	2042.0	-0.4390909090909091	483.0	-0.015454545454545455	-17.0	-0.22142857142857145	217.0	1.5228924584739688E12	1.522892458483E12	2152.34375	4992.0	0.0	0.0	
-0.7633587786259541	-35.0	0.5343511450381679	50.0	1.450381679389313	-95.0	0.42168674698795183	1286.0	9.168674698795181	2012.0	0.04819277108433735	2043.0	-0.4390909090909091	483.0	-0.015454545454545455	-17.0	-0.22142857142857145	217.0	1.522892458477875E12	1.522892458502E12	2156.25	5120.0	0.0	0.0	
-0.6717557251908397	-33.0	0.5038167938931297	44.0	1.1603053435114503	-76.0	0.46987951807228917	1286.0	9.168674698795181	2008.0	0.03614457831325302	2044.0	-0.43636363636363634	480.0	-0.02181818181818182	-24.0	-0.22653061224489798	222.0	1.5228924584817813E12	1.522892458504E12	2160.15625	5248.0	0.0	0.0	
-0.8549618320610687	-17.0	0.2595419847328244	56.0	1.5419847328244274	-101.0	0.4819277108433735	1285.0	9.180722891566266	2007.0	0.012048192771084338	2046.0	-0.44545454545454544	490.0	-0.02727272727272727	-30.0	-0.22244897959183677	218.0	1.5228924584856875E12	1.522892458505E12	2164.0625	5376.0	0.0	0.0	
-0.6564885496183206	-37.0	0.564885496183206	43.0	1.5419847328244274	-101.0	0.5060240963855422	1285.0	9.180722891566266	2005.0	0.012048192771084338	2046.0	-0.4409090909090909	485.0	-0.038181818181818185	-42.0	-0.22551020408163266	221.0	1.5228924584895938E12	1.522892458507E12	2167.96875	5504.0	0.0	0.0	
-0.6259541984732824	-36.0	0.549618320610687	41.0	1.3282442748091603	-87.0	0.49397590361445787	1286.0	9.168674698795181	2006.0	0.0	2047.0	-0.4409090909090909	485.0	-0.024545454545454544	-27.0	-0.22755102040816327	223.0	1.5228924584935E12	1.522892458508E12	2171.875	5632.0	0.0	0.0	
-0.7786259541984732	-43.0	0.6564885496183206	51.0	1.465648854961832	-96.0	0.49397590361445787	1285.0	9.180722891566266	2006.0	-0.012048192771084338	2048.0	-0.43363636363636365	477.0	-0.03	-33.0	-0.22244897959183677	218.0	1.5228924584974063E12	1.522892458509E12	2175.78125	5760.0	0.0	0.0	
-0.6717557251908397	-32.0	0.48854961832061067	44.0	1.4198473282442747	-93.0	0.49397590361445787	1285.0	9.180722891566266	2006.0	0.0	2047.0	-0.43363636363636365	477.0	-0.02727272727272727	-30.0	-0.22244897959183677	218.0	1.5228924585013125E12	1.522892458514E12	2179.6875	5888.0	0.0	0.0	
-0.7938931297709924	-28.0	0.42748091603053434	52.0	1.4045801526717556	-92.0	0.5060240963855422	1286.0	9.168674698795181	2005.0	-0.024096385542168676	2049.0	-0.4445454545454545	489.0	-0.02727272727272727	-30.0	-0.22244897959183677	218.0	1.5228924585052188E12	1.522892458515E12	2183.59375	6016.0	0.0	0.0	
-0.564885496183206	-33.0	0.5038167938931297	37.0	1.4045801526717556	-92.0	0.5180722891566265	1285.0	9.180722891566266	2004.0	-0.03614457831325302	2050.0	-0.4409090909090909	485.0	-0.023636363636363636	-26.0	-0.2295918367346939	225.0	1.522892458509125E12	1.522892458517E12	2187.5	6144.0	0.0	0.0	
-0.8396946564885496	-44.0	0.6717557251908397	55.0	1.297709923664122	-85.0	0.5180722891566265	1285.0	9.180722891566266	2004.0	-0.07228915662650603	2053.0	-0.44545454545454544	490.0	-0.028181818181818183	-31.0	-0.22448979591836737	220.0	1.5228924585130313E12	1.522892458526E12	2191.40625	6272.0	0.0	0.0	
-0.7938931297709924	-43.0	0.6564885496183206	52.0	1.282442748091603	-84.0	0.46987951807228917	1286.0	9.168674698795181	2008.0	-0.08433734939759037	2054.0	-0.44272727272727275	487.0	-0.017272727272727273	-19.0	-0.21836734693877552	214.0	1.5228924585169375E12	1.522892458528E12	2195.3125	6400.0	0.0	0.0	
-0.9465648854961831	-48.0	0.732824427480916	62.0	1.3740458015267174	-90.0	0.49397590361445787	1284.0	9.19277108433735	2006.0	-0.08433734939759037	2054.0	-0.4390909090909091	483.0	-0.02090909090909091	-23.0	-0.22244897959183677	218.0	1.5228924585208438E12	1.522892458529E12	2199.21875	6528.0	0.0	0.0	
-0.732824427480916	-37.0	0.564885496183206	48.0	1.3282442748091603	-87.0	0.45783132530120485	1285.0	9.180722891566266	2009.0	-0.10843373493975904	2056.0	-0.44181818181818183	486.0	-0.034545454545454546	-38.0	-0.22244897959183677	218.0	1.52289245852475E12	1.522892458536E12	2203.125	6656.0	0.0	0.0	
-0.8091603053435115	-41.0	0.6259541984732824	53.0	1.3893129770992365	-91.0	0.4819277108433735	1285.0	9.180722891566266	2007.0	-0.0963855421686747	2055.0	-0.44181818181818183	486.0	-0.034545454545454546	-38.0	-0.22244897959183677	218.0	1.5228924585286563E12	1.522892458538E12	2207.03125	6784.0	0.0	0.0	
-1.129770992366412	-52.0	0.7938931297709924	74.0	1.3893129770992365	-91.0	0.5180722891566265	1285.0	9.180722891566266	2004.0	-0.08433734939759037	2054.0	-0.44	484.0	-0.023636363636363636	-26.0	-0.22040816326530616	216.0	1.5228924585325625E12	1.52289245854E12	2210.9375	6912.0	0.0	0.0	
-0.9465648854961831	-59.0	0.9007633587786259	62.0	1.297709923664122	-85.0	0.5060240963855422	1286.0	9.168674698795181	2005.0	-0.08433734939759037	2054.0	-0.44	484.0	-0.02	-22.0	-0.22653061224489798	222.0	1.5228924585364688E12	1.522892458549E12	2214.84375	7040.0	0.0	0.0	
-0.7175572519083969	-50.0	0.7633587786259541	47.0	1.282442748091603	-84.0	0.49397590361445787	1284.0	9.19277108433735	2006.0	-0.10843373493975904	2056.0	-0.4390909090909091	483.0	-0.016363636363636365	-18.0	-0.21938775510204084	215.0	1.522892458540375E12	1.52289245855E12	2218.75	7168.0	0.0	0.0	
-0.9923664122137404	-58.0	0.8854961832061068	65.0	1.1450381679389312	-75.0	0.45783132530120485	1286.0	9.168674698795181	2009.0	-0.10843373493975904	2056.0	-0.4390909090909091	483.0	-0.035454545454545454	-39.0	-0.22653061224489798	222.0	1.5228924585442813E12	1.522892458552E12	2222.65625	7296.0	0.0	0.0	
-1.0076335877862594	-53.0	0.8091603053435115	66.0	1.282442748091603	-84.0	0.43373493975903615	1285.0	9.180722891566266	2011.0	-0.12048192771084337	2057.0	-0.4381818181818182	482.0	-0.024545454545454544	-27.0	-0.22346938775510206	219.0	1.5228924585481875E12	1.522892458564E12	2226.5625	7424.0	0.0	0.0	
-1.3282442748091603	-52.0	0.7938931297709924	87.0	1.450381679389313	-95.0	0.44578313253012053	1285.0	9.180722891566266	2010.0	-0.0963855421686747	2055.0	-0.44181818181818183	486.0	-0.03363636363636364	-37.0	-0.22244897959183677	218.0	1.5228924585520938E12	1.522892458565E12	2230.46875	7552.0	0.0	0.0	
-1.1603053435114503	-46.0	0.7022900763358778	76.0	1.3587786259541985	-89.0	0.42168674698795183	1284.0	9.19277108433735	2012.0	-0.12048192771084337	2057.0	-0.44181818181818183	486.0	-0.03363636363636364	-37.0	-0.22244897959183677	218.0	1.522892458556E12	1.522892458565E12	2234.375	7680.0	0.0	0.0	
-1.129770992366412	-51.0	0.7786259541984732	74.0	1.450381679389313	-95.0	0.44578313253012053	1285.0	9.180722891566266	2010.0	-0.12048192771084337	2057.0	-0.4409090909090909	485.0	-0.031818181818181815	-35.0	-0.22653061224489798	222.0	1.5228924585599063E12	1.522892458566E12	2238.28125	7808.0	0.0	0.0	
-1.0381679389312977	-57.0	0.8702290076335878	68.0	1.4351145038167938	-94.0	0.4819277108433735	1285.0	9.180722891566266	2007.0	-0.0963855421686747	2055.0	-0.43	473.0	-0.02727272727272727	-30.0	-0.22755102040816327	223.0	1.5228924585638125E12	1.522892458576E12	2242.1875	7936.0	0.0	0.0	
-1.3893129770992365	-54.0	0.8244274809160305	91.0	1.3587786259541985	-89.0	0.4819277108433735	1285.0	9.180722891566266	2007.0	-0.0963855421686747	2055.0	-0.44272727272727275	487.0	-0.03363636363636364	-37.0	-0.22244897959183677	218.0	1.5228924585677188E12	1.522892458577E12	2246.09375	8064.0	0.0	0.0	
-1.3435114503816794	-49.0	0.7480916030534351	88.0	1.465648854961832	-96.0	0.46987951807228917	1285.0	9.180722891566266	2008.0	-0.0963855421686747	2055.0	-0.44	484.0	-0.02727272727272727	-30.0	-0.22448979591836737	220.0	1.522892458571625E12	1.522892458578E12	2250.0	8192.0	0.0	0.0	
-1.450381679389313	-57.0	0.8702290076335878	95.0	1.2213740458015268	-80.0	0.45783132530120485	1285.0	9.180722891566266	2009.0	-0.0963855421686747	2055.0	-0.44272727272727275	487.0	-0.025454545454545455	-28.0	-0.22448979591836737	220.0	1.5228924585755313E12	1.522892458614E12	2253.90625	8320.0	0.0	0.0	
-1.282442748091603	-69.0	1.0534351145038168	84.0	1.4351145038167938	-94.0	0.45783132530120485	1285.0	9.180722891566266	2009.0	-0.07228915662650603	2053.0	-0.44272727272727275	487.0	-0.016363636363636365	-18.0	-0.22142857142857145	217.0	1.5228924585794375E12	1.522892458616E12	2257.8125	8448.0	0.0	0.0	
-1.3129770992366412	-55.0	0.8396946564885496	86.0	1.450381679389313	-95.0	0.4819277108433735	1284.0	9.19277108433735	2007.0	-0.060240963855421686	2052.0	-0.44272727272727275	487.0	-0.016363636363636365	-18.0	-0.22142857142857145	217.0	1.5228924585833438E12	1.522892458617E12	2261.71875	8576.0	0.0	0.0	
-1.297709923664122	-66.0	1.0076335877862594	85.0	1.282442748091603	-84.0	0.44578313253012053	1284.0	9.19277108433735	2010.0	-0.03614457831325302	2050.0	-0.4390909090909091	483.0	-0.023636363636363636	-26.0	-0.22448979591836737	220.0	1.52289245858725E12	1.522892458618E12	2265.625	8704.0	0.0	0.0	
-1.4198473282442747	-67.0	1.0229007633587786	93.0	1.3129770992366412	-86.0	0.44578313253012053	1284.0	9.19277108433735	2010.0	-0.012048192771084338	2048.0	-0.4445454545454545	489.0	-0.02727272727272727	-30.0	-0.22755102040816327	223.0	1.5228924585911563E12	1.522892458619E12	2269.53125	8832.0	0.0	0.0	
-1.5419847328244274	-76.0	1.1603053435114503	101.0	1.3435114503816794	-88.0	0.44578313253012053	1284.0	9.19277108433735	2010.0	0.012048192771084338	2046.0	-0.44272727272727275	487.0	-0.03636363636363636	-40.0	-0.22142857142857145	217.0	1.5228924585950625E12	1.52289245862E12	2273.4375	8960.0	0.0	0.0	
-1.4961832061068703	-62.0	0.9465648854961831	98.0	1.4809160305343512	-97.0	0.45783132530120485	1287.0	9.156626506024097	2009.0	0.024096385542168676	2045.0	-0.43727272727272726	481.0	-0.034545454545454546	-38.0	-0.22551020408163266	221.0	1.5228924585989688E12	1.522892458621E12	2277.34375	9088.0	0.0	0.0	
-1.450381679389313	-48.0	0.732824427480916	95.0	1.618320610687023	-106.0	0.49397590361445787	1286.0	9.168674698795181	2006.0	0.04819277108433735	2043.0	-0.4390909090909091	483.0	-0.02	-22.0	-0.22346938775510206	219.0	1.522892458602875E12	1.522892458622E12	2281.25	9216.0	0.0	0.0	
-1.4198473282442747	-58.0	0.8854961832061068	93.0	1.5572519083969465	-102.0	0.5301204819277109	1285.0	9.180722891566266	2003.0	0.024096385542168676	2045.0	-0.4445454545454545	489.0	-0.03363636363636364	-37.0	-0.22755102040816327	223.0	1.5228924586067813E12	1.522892458623E12	2285.15625	9344.0	0.0	0.0	
-1.4809160305343512	-56.0	0.8549618320610687	97.0	1.5267175572519083	-100.0	0.5542168674698795	1285.0	9.180722891566266	2001.0	0.03614457831325302	2044.0	-0.4445454545454545	489.0	-0.03363636363636364	-37.0	-0.22755102040816327	223.0	1.5228924586106875E12	1.522892458624E12	2289.0625	9472.0	0.0	0.0	
-1.297709923664122	-59.0	0.9007633587786259	85.0	1.3435114503816794	-88.0	0.5301204819277109	1285.0	9.180722891566266	2003.0	0.04819277108433735	2043.0	-0.4390909090909091	483.0	-0.035454545454545454	-39.0	-0.22653061224489798	222.0	1.5228924586145938E12	1.522892458625E12	2292.96875	9600.0	0.0	0.0	
-1.4045801526717556	-67.0	1.0229007633587786	92.0	1.4045801526717556	-92.0	0.5301204819277109	1286.0	9.168674698795181	2003.0	0.060240963855421686	2042.0	-0.44272727272727275	487.0	-0.022727272727272728	-25.0	-0.22448979591836737	220.0	1.5228924586185E12	1.522892458626E12	2296.875	9728.0	0.0	0.0	
-1.297709923664122	-65.0	0.9923664122137404	85.0	1.2519083969465647	-82.0	0.4819277108433735	1284.0	9.19277108433735	2007.0	0.08433734939759037	2040.0	-0.44272727272727275	487.0	-0.035454545454545454	-39.0	-0.22448979591836737	220.0	1.5228924586224063E12	1.522892458634E12	2300.78125	9856.0	0.0	0.0	
-1.465648854961832	-58.0	0.8854961832061068	96.0	1.4198473282442747	-93.0	0.5180722891566265	1284.0	9.19277108433735	2004.0	0.08433734939759037	2040.0	-0.44	484.0	-0.03090909090909091	-34.0	-0.22244897959183677	218.0	1.5228924586263125E12	1.522892458635E12	2304.6875	9984.0	0.0	0.0	
-1.297709923664122	-69.0	1.0534351145038168	85.0	1.3587786259541985	-89.0	0.5180722891566265	1285.0	9.180722891566266	2004.0	0.10843373493975904	2038.0	-0.43272727272727274	476.0	-0.005454545454545455	-6.0	-0.22551020408163266	221.0	1.5228924586302188E12	1.522892458636E12	2308.59375	10112.0	0.0	0.0	
-1.297709923664122	-55.0	0.8396946564885496	85.0	1.1450381679389312	-75.0	0.5421686746987953	1284.0	9.19277108433735	2002.0	0.12048192771084337	2037.0	-0.43636363636363634	480.0	-0.016363636363636365	-18.0	-0.22551020408163266	221.0	1.522892458634125E12	1.522892458646E12	2312.5	10240.0	0.0	0.0	
-1.4961832061068703	-67.0	1.0229007633587786	98.0	1.2519083969465647	-82.0	0.4819277108433735	1284.0	9.19277108433735	2007.0	0.10843373493975904	2038.0	-0.43636363636363634	480.0	-0.016363636363636365	-18.0	-0.22551020408163266	221.0	1.5228924586380313E12	1.522892458647E12	2316.40625	10368.0	0.0	0.0	
-1.297709923664122	-69.0	1.0534351145038168	85.0	1.1908396946564885	-78.0	0.4819277108433735	1285.0	9.180722891566266	2007.0	0.13253012048192772	2036.0	-0.43272727272727274	476.0	-0.03090909090909091	-34.0	-0.22142857142857145	217.0	1.5228924586419375E12	1.522892458649E12	2320.3125	10496.0	0.0	0.0	
-1.2366412213740459	-73.0	1.114503816793893	81.0	1.4351145038167938	-94.0	0.45783132530120485	1285.0	9.180722891566266	2009.0	0.16867469879518074	2033.0	-0.44545454545454544	490.0	-0.022727272727272728	-25.0	-0.22142857142857145	217.0	1.5228924586458438E12	1.522892458658E12	2324.21875	10624.0	0.0	0.0	
-1.2213740458015268	-69.0	1.0534351145038168	80.0	1.282442748091603	-84.0	0.43373493975903615	1287.0	9.156626506024097	2011.0	0.20481927710843376	2030.0	-0.44545454545454544	490.0	-0.028181818181818183	-31.0	-0.22755102040816327	223.0	1.52289245864975E12	1.522892458659E12	2328.125	10752.0	0.0	0.0	
-1.0687022900763359	-65.0	0.9923664122137404	70.0	1.282442748091603	-84.0	0.43373493975903615	1287.0	9.156626506024097	2011.0	0.22891566265060243	2028.0	-0.44	484.0	-0.02727272727272727	-30.0	-0.2285714285714286	224.0	1.5228924586536563E12	1.52289245866E12	2332.03125	10880.0	0.0	0.0	
-1.129770992366412	-60.0	0.916030534351145	74.0	1.3587786259541985	-89.0	0.42168674698795183	1286.0	9.168674698795181	2012.0	0.2530120481927711	2026.0	-0.44272727272727275	487.0	-0.024545454545454544	-27.0	-0.21938775510204084	215.0	1.5228924586575625E12	1.522892458678E12	2335.9375	11008.0	0.0	0.0	
-1.083969465648855	-58.0	0.8854961832061068	71.0	1.3435114503816794	-88.0	0.44578313253012053	1286.0	9.168674698795181	2010.0	0.2530120481927711	2026.0	-0.44272727272727275	487.0	-0.02090909090909091	-23.0	-0.22040816326530616	216.0	1.5228924586614688E12	1.522892458679E12	2339.84375	11136.0	0.0	0.0	
-0.9465648854961831	-62.0	0.9465648854961831	62.0	1.1908396946564885	-78.0	0.39759036144578314	1284.0	9.19277108433735	2014.0	0.26506024096385544	2025.0	-0.4390909090909091	483.0	-0.02090909090909091	-23.0	-0.22040816326530616	216.0	1.522892458665375E12	1.52289245868E12	2343.75	11264.0	0.0	0.0	
-0.8091603053435115	-64.0	0.9770992366412213	53.0	1.3435114503816794	-88.0	0.3734939759036145	1286.0	9.168674698795181	2016.0	0.24096385542168675	2027.0	-0.43727272727272726	481.0	-0.024545454545454544	-27.0	-0.22653061224489798	222.0	1.5228924586692813E12	1.522892458682E12	2347.65625	11392.0	0.0	0.0	
-0.9312977099236641	-48.0	0.732824427480916	61.0	1.3435114503816794	-88.0	0.3614457831325301	1285.0	9.180722891566266	2017.0	0.2530120481927711	2026.0	-0.4354545454545454	479.0	-0.03363636363636364	-37.0	-0.22551020408163266	221.0	1.5228924586731875E12	1.522892458683E12	2351.5625	11520.0	0.0	0.0	
-0.9923664122137404	-48.0	0.732824427480916	65.0	1.5572519083969465	-102.0	0.3614457831325301	1285.0	9.180722891566266	2017.0	0.22891566265060243	2028.0	-0.44272727272727275	487.0	-0.02181818181818182	-24.0	-0.2295918367346939	225.0	1.5228924586770938E12	1.522892458684E12	2355.46875	11648.0	0.0	0.0	
-0.6106870229007634	-58.0	0.8854961832061068	40.0	1.465648854961832	-96.0	0.3614457831325301	1285.0	9.180722891566266	2017.0	0.22891566265060243	2028.0	-0.43727272727272726	481.0	-0.022727272727272728	-25.0	-0.22448979591836737	220.0	1.522892458681E12	1.52289245869E12	2359.375	11776.0	0.0	0.0	
-0.7633587786259541	-31.0	0.47328244274809156	50.0	1.4351145038167938	-94.0	0.3734939759036145	1285.0	9.180722891566266	2016.0	0.22891566265060243	2028.0	-0.44545454545454544	490.0	-0.02727272727272727	-30.0	-0.22040816326530616	216.0	1.5228924586849063E12	1.522892458691E12	2363.28125	11904.0	0.0	0.0	
-0.7175572519083969	-40.0	0.6106870229007634	47.0	1.6335877862595418	-107.0	0.3614457831325301	1285.0	9.180722891566266	2017.0	0.21686746987951808	2029.0	-0.44545454545454544	490.0	-0.02727272727272727	-30.0	-0.22040816326530616	216.0	1.5228924586888125E12	1.522892458692E12	2367.1875	12032.0	0.0	0.0	
-0.6412213740458015	-33.0	0.5038167938931297	42.0	1.4809160305343512	-97.0	0.3493975903614458	1285.0	9.180722891566266	2018.0	0.21686746987951808	2029.0	-0.44	484.0	-0.022727272727272728	-25.0	-0.22244897959183677	218.0	1.5228924586927188E12	1.522892458705E12	2371.09375	12160.0	0.0	0.0	
-0.47328244274809156	-34.0	0.5190839694656488	31.0	1.4198473282442747	-93.0	0.3132530120481928	1286.0	9.168674698795181	2021.0	0.1927710843373494	2031.0	-0.4318181818181818	475.0	-0.028181818181818183	-31.0	-0.22448979591836737	220.0	1.522892458696625E12	1.522892458706E12	2375.0	12288.0	0.0	0.0	
-0.5801526717557252	-45.0	0.6870229007633587	38.0	1.3893129770992365	-91.0	0.3493975903614458	1286.0	9.168674698795181	2018.0	0.18072289156626506	2032.0	-0.44363636363636366	488.0	-0.02727272727272727	-30.0	-0.22040816326530616	216.0	1.5228924587005313E12	1.522892458708E12	2378.90625	12416.0	0.0	0.0	
-0.5954198473282443	-35.0	0.5343511450381679	39.0	1.7862595419847327	-117.0	0.3493975903614458	1285.0	9.180722891566266	2018.0	0.18072289156626506	2032.0	-0.44	484.0	-0.017272727272727273	-19.0	-0.22244897959183677	218.0	1.5228924587044375E12	1.52289245872E12	2382.8125	12544.0	0.0	0.0	
-0.5343511450381679	-31.0	0.47328244274809156	35.0	1.6946564885496183	-111.0	0.39759036144578314	1284.0	9.19277108433735	2014.0	0.16867469879518074	2033.0	-0.44	484.0	-0.02090909090909091	-23.0	-0.22244897959183677	218.0	1.5228924587083438E12	1.522892458721E12	2386.71875	12672.0	0.0	0.0	
-0.42748091603053434	-19.0	0.2900763358778626	28.0	1.7251908396946565	-113.0	0.39759036144578314	1286.0	9.168674698795181	2014.0	0.14457831325301207	2035.0	-0.4445454545454545	489.0	-0.028181818181818183	-31.0	-0.22040816326530616	216.0	1.52289245871225E12	1.522892458723E12	2390.625	12800.0	0.0	0.0	
-0.3053435114503817	-33.0	0.5038167938931297	20.0	1.5725190839694656	-103.0	0.4096385542168675	1285.0	9.180722891566266	2013.0	0.13253012048192772	2036.0	-0.4445454545454545	489.0	-0.028181818181818183	-31.0	-0.22040816326530616	216.0	1.5228924587161563E12	1.522892458733E12	2394.53125	12928.0	0.0	0.0	
-0.5801526717557252	-22.0	0.33587786259541985	38.0	1.7404580152671756	-114.0	0.42168674698795183	1286.0	9.168674698795181	2012.0	0.10843373493975904	2038.0	-0.43727272727272726	481.0	-0.024545454545454544	-27.0	-0.21938775510204084	215.0	1.5228924587200625E12	1.522892458734E12	2398.4375	13056.0	0.0	0.0	
-0.5038167938931297	-25.0	0.38167938931297707	33.0	1.6335877862595418	-107.0	0.46987951807228917	1285.0	9.180722891566266	2008.0	0.08433734939759037	2040.0	-0.4354545454545454	479.0	-0.02090909090909091	-23.0	-0.22346938775510206	219.0	1.5228924587239688E12	1.522892458735E12	2402.34375	13184.0	0.0	0.0	
-0.47328244274809156	-27.0	0.41221374045801523	31.0	1.816793893129771	-119.0	0.49397590361445787	1285.0	9.180722891566266	2006.0	0.060240963855421686	2042.0	-0.44363636363636366	488.0	-0.03	-33.0	-0.22244897959183677	218.0	1.522892458727875E12	1.522892458764E12	2406.25	13312.0	0.0	0.0	
-0.366412213740458	-36.0	0.549618320610687	24.0	1.7251908396946565	-113.0	0.4819277108433735	1286.0	9.168674698795181	2007.0	0.060240963855421686	2042.0	-0.4409090909090909	485.0	-0.023636363636363636	-26.0	-0.22755102040816327	223.0	1.5228924587317813E12	1.522892458765E12	2410.15625	13440.0	0.0	0.0	
-0.38167938931297707	-40.0	0.6106870229007634	25.0	1.6030534351145038	-105.0	0.5060240963855422	1284.0	9.19277108433735	2005.0	0.04819277108433735	2043.0	-0.4390909090909091	483.0	-0.02090909090909091	-23.0	-0.22653061224489798	222.0	1.5228924587356875E12	1.522892458767E12	2414.0625	13568.0	0.0	0.0	
-0.5038167938931297	-28.0	0.42748091603053434	33.0	1.4961832061068703	-98.0	0.5180722891566265	1285.0	9.180722891566266	2004.0	0.04819277108433735	2043.0	-0.44	484.0	-0.03363636363636364	-37.0	-0.22244897959183677	218.0	1.5228924587395938E12	1.522892458768E12	2417.96875	13696.0	0.0	0.0	
-0.366412213740458	-22.0	0.33587786259541985	24.0	1.8625954198473282	-122.0	0.5180722891566265	1285.0	9.180722891566266	2004.0	0.024096385542168676	2045.0	-0.44	484.0	-0.03363636363636364	-37.0	-0.22244897959183677	218.0	1.5228924587435E12	1.522892458769E12	2421.875	13824.0	0.0	0.0	
-0.5038167938931297	-44.0	0.6717557251908397	33.0	1.5572519083969465	-102.0	0.5421686746987953	1285.0	9.180722891566266	2002.0	0.012048192771084338	2046.0	-0.4354545454545454	479.0	-0.026363636363636363	-29.0	-0.22142857142857145	217.0	1.5228924587474063E12	1.52289245877E12	2425.78125	13952.0	0.0	0.0	
-0.5190839694656488	-32.0	0.48854961832061067	34.0	1.648854961832061	-108.0	0.5180722891566265	1285.0	9.180722891566266	2004.0	0.012048192771084338	2046.0	-0.44	484.0	-0.016363636363636365	-18.0	-0.22040816326530616	216.0	1.5228924587513125E12	1.522892458771E12	2429.6875	14080.0	0.0	0.0	
-0.5190839694656488	-33.0	0.5038167938931297	34.0	1.6335877862595418	-107.0	0.5180722891566265	1285.0	9.180722891566266	2004.0	0.012048192771084338	2046.0	-0.44545454545454544	490.0	-0.035454545454545454	-39.0	-0.22551020408163266	221.0	1.5228924587552188E12	1.522892458772E12	2433.59375	14208.0	0.0	0.0	
-0.41221374045801523	-36.0	0.549618320610687	27.0	1.4961832061068703	-98.0	0.49397590361445787	1286.0	9.168674698795181	2006.0	0.0	2047.0	-0.4354545454545454	479.0	-0.023636363636363636	-26.0	-0.2295918367346939	225.0	1.522892458759125E12	1.522892458773E12	2437.5	14336.0	0.0	0.0	
-0.5190839694656488	-47.0	0.7175572519083969	34.0	1.7251908396946565	-113.0	0.49397590361445787	1284.0	9.19277108433735	2006.0	0.0	2047.0	-0.4409090909090909	485.0	-0.02	-22.0	-0.22448979591836737	220.0	1.5228924587630313E12	1.522892458775E12	2441.40625	14464.0	0.0	0.0	
-0.549618320610687	-42.0	0.6412213740458015	36.0	1.465648854961832	-96.0	0.4819277108433735	1284.0	9.19277108433735	2007.0	0.012048192771084338	2046.0	-0.4390909090909091	483.0	-0.028181818181818183	-31.0	-0.22551020408163266	221.0	1.5228924587669375E12	1.522892458776E12	2445.3125	14592.0	0.0	0.0	
-0.6412213740458015	-44.0	0.6717557251908397	42.0	1.66412213740458	-109.0	0.4819277108433735	1288.0	9.144578313253012	2007.0	0.024096385542168676	2045.0	-0.4390909090909091	483.0	-0.028181818181818183	-31.0	-0.22551020408163266	221.0	1.5228924587708438E12	1.522892458777E12	2449.21875	14720.0	0.0	0.0	
-0.32061068702290074	-34.0	0.5190839694656488	21.0	1.7099236641221374	-112.0	0.49397590361445787	1285.0	9.180722891566266	2006.0	0.03614457831325302	2044.0	-0.43363636363636365	477.0	-0.03	-33.0	-0.2295918367346939	225.0	1.52289245877475E12	1.522892458786E12	2453.125	14848.0	0.0	0.0	
-0.6717557251908397	-47.0	0.7175572519083969	44.0	1.7862595419847327	-117.0	0.5180722891566265	1285.0	9.180722891566266	2004.0	0.024096385542168676	2045.0	-0.43363636363636365	477.0	-0.022727272727272728	-25.0	-0.22551020408163266	221.0	1.5228924587786563E12	1.522892458787E12	2457.03125	14976.0	0.0	0.0	
-0.6717557251908397	-52.0	0.7938931297709924	44.0	1.5114503816793892	-99.0	0.5060240963855422	1287.0	9.156626506024097	2005.0	0.012048192771084338	2046.0	-0.4390909090909091	483.0	-0.01818181818181818	-20.0	-0.21836734693877552	214.0	1.5228924587825625E12	1.522892458788E12	2460.9375	15104.0	0.0	0.0	
-0.4580152671755725	-36.0	0.549618320610687	30.0	1.648854961832061	-108.0	0.5301204819277109	1284.0	9.19277108433735	2003.0	0.012048192771084338	2046.0	-0.44181818181818183	486.0	-0.028181818181818183	-31.0	-0.22755102040816327	223.0	1.5228924587864688E12	1.522892458799E12	2464.84375	15232.0	0.0	0.0	
-0.7633587786259541	-39.0	0.5954198473282443	50.0	1.7709923664122136	-116.0	0.5301204819277109	1284.0	9.19277108433735	2003.0	0.012048192771084338	2046.0	-0.44	484.0	-0.014545454545454545	-16.0	-0.22346938775510206	219.0	1.522892458790375E12	1.5228924588E12	2468.75	15360.0	0.0	0.0	
-0.7175572519083969	-42.0	0.6412213740458015	47.0	1.6030534351145038	-105.0	0.5060240963855422	1284.0	9.19277108433735	2005.0	0.0	2047.0	-0.44363636363636366	488.0	-0.03272727272727273	-36.0	-0.22448979591836737	220.0	1.5228924587942813E12	1.5228924588E12	2472.65625	15488.0	0.0	0.0	
-0.549618320610687	-43.0	0.6564885496183206	36.0	1.4961832061068703	-98.0	0.5180722891566265	1287.0	9.156626506024097	2004.0	0.0	2047.0	-0.44363636363636366	488.0	-0.03272727272727273	-36.0	-0.22448979591836737	220.0	1.5228924587981875E12	1.522892458811E12	2476.5625	15616.0	0.0	0.0	
-0.2900763358778626	-43.0	0.6564885496183206	19.0	1.5725190839694656	-103.0	0.5180722891566265	1285.0	9.180722891566266	2004.0	0.0	2047.0	-0.44181818181818183	486.0	-0.026363636363636363	-29.0	-0.22142857142857145	217.0	1.5228924588020938E12	1.522892458812E12	2480.46875	15744.0	0.0	0.0	
-0.732824427480916	-48.0	0.732824427480916	48.0	1.2366412213740459	-81.0	0.4819277108433735	1285.0	9.180722891566266	2007.0	-0.012048192771084338	2048.0	-0.44272727272727275	487.0	-0.023636363636363636	-26.0	-0.22142857142857145	217.0	1.522892458806E12	1.522892458813E12	2484.375	15872.0	0.0	0.0	
-0.6870229007633587	-50.0	0.7633587786259541	45.0	1.5419847328244274	-101.0	0.46987951807228917	1284.0	9.19277108433735	2008.0	0.012048192771084338	2046.0	-0.44636363636363635	491.0	-0.034545454545454546	-38.0	-0.22653061224489798	222.0	1.5228924588099063E12	1.522892458814E12	2488.28125	16000.0	0.0	0.0	
-0.6717557251908397	-50.0	0.7633587786259541	44.0	1.5419847328244274	-101.0	0.45783132530120485	1285.0	9.180722891566266	2009.0	0.012048192771084338	2046.0	-0.44	484.0	-0.03363636363636364	-37.0	-0.22755102040816327	223.0	1.5228924588138125E12	1.522892458829E12	2492.1875	16128.0	0.0	0.0	
-0.7022900763358778	-52.0	0.7938931297709924	46.0	1.7099236641221374	-112.0	0.4819277108433735	1287.0	9.156626506024097	2007.0	0.012048192771084338	2046.0	-0.44363636363636366	488.0	-0.026363636363636363	-29.0	-0.22040816326530616	216.0	1.5228924588177188E12	1.522892458831E12	2496.09375	16256.0	0.0	0.0	
-0.5801526717557252	-37.0	0.564885496183206	38.0	1.5267175572519083	-100.0	0.49397590361445787	1286.0	9.168674698795181	2006.0	0.024096385542168676	2045.0	-0.44272727272727275	487.0	-0.035454545454545454	-39.0	-0.22653061224489798	222.0	1.522892458821625E12	1.522892458832E12	2500.0	16384.0	0.0	0.0	
-0.6412213740458015	-38.0	0.5801526717557252	42.0	1.618320610687023	-106.0	0.49397590361445787	1285.0	9.180722891566266	2006.0	0.024096385542168676	2045.0	-0.44272727272727275	487.0	-0.035454545454545454	-39.0	-0.22653061224489798	222.0	1.5228924588255313E12	1.522892458836E12	2503.90625	16512.0	0.0	0.0	
-0.7175572519083969	-46.0	0.7022900763358778	47.0	1.5572519083969465	-102.0	0.4819277108433735	1285.0	9.180722891566266	2007.0	0.03614457831325302	2044.0	-0.4390909090909091	483.0	-0.031818181818181815	-35.0	-0.22448979591836737	220.0	1.5228924588294375E12	1.522892458838E12	2507.8125	16640.0	0.0	0.0	
-0.6412213740458015	-38.0	0.5801526717557252	42.0	1.450381679389313	-95.0	0.44578313253012053	1286.0	9.168674698795181	2010.0	0.024096385542168676	2045.0	-0.44181818181818183	486.0	-0.024545454545454544	-27.0	-0.22346938775510206	219.0	1.5228924588333438E12	1.522892458839E12	2511.71875	16768.0	0.0	0.0	
-0.732824427480916	-58.0	0.8854961832061068	48.0	1.5877862595419847	-104.0	0.43373493975903615	1285.0	9.180722891566266	2011.0	0.03614457831325302	2044.0	-0.44363636363636366	488.0	-0.03	-33.0	-0.22653061224489798	222.0	1.52289245883725E12	1.522892458847E12	2515.625	16896.0	0.0	0.0	
-0.47328244274809156	-43.0	0.6564885496183206	31.0	1.66412213740458	-109.0	0.46987951807228917	1285.0	9.180722891566266	2008.0	0.04819277108433735	2043.0	-0.44272727272727275	487.0	-0.023636363636363636	-26.0	-0.22755102040816327	223.0	1.5228924588411563E12	1.522892458848E12	2519.53125	17024.0	0.0	0.0	
-0.564885496183206	-36.0	0.549618320610687	37.0	1.7099236641221374	-112.0	0.5060240963855422	1284.0	9.19277108433735	2005.0	0.03614457831325302	2044.0	-0.4318181818181818	475.0	-0.024545454545454544	-27.0	-0.22448979591836737	220.0	1.5228924588450625E12	1.522892458849E12	2523.4375	17152.0	0.0	0.0	
-0.6870229007633587	-36.0	0.549618320610687	45.0	1.66412213740458	-109.0	0.5542168674698795	1286.0	9.168674698795181	2001.0	0.03614457831325302	2044.0	-0.4390909090909091	483.0	-0.01818181818181818	-20.0	-0.21836734693877552	214.0	1.5228924588489688E12	1.522892458859E12	2527.34375	17280.0	0.0	0.0	
-0.6717557251908397	-52.0	0.7938931297709924	44.0	1.5877862595419847	-104.0	0.5301204819277109	1286.0	9.168674698795181	2003.0	0.024096385542168676	2045.0	-0.4390909090909091	483.0	-0.01818181818181818	-20.0	-0.21836734693877552	214.0	1.522892458852875E12	1.52289245886E12	2531.25	17408.0	0.0	0.0	
-0.5038167938931297	-56.0	0.8549618320610687	33.0	1.5725190839694656	-103.0	0.5301204819277109	1285.0	9.180722891566266	2003.0	0.012048192771084338	2046.0	-0.43727272727272726	481.0	-0.023636363636363636	-26.0	-0.22551020408163266	221.0	1.5228924588567813E12	1.522892458861E12	2535.15625	17536.0	0.0	0.0	
-0.9923664122137404	-52.0	0.7938931297709924	65.0	1.6793893129770991	-110.0	0.5180722891566265	1284.0	9.19277108433735	2004.0	0.024096385542168676	2045.0	-0.4354545454545454	479.0	-0.006363636363636364	-7.0	-0.22346938775510206	219.0	1.5228924588606875E12	1.522892458872E12	2539.0625	17664.0	0.0	0.0	
-0.7938931297709924	-43.0	0.6564885496183206	52.0	1.5267175572519083	-100.0	0.5060240963855422	1284.0	9.19277108433735	2005.0	0.04819277108433735	2043.0	-0.4354545454545454	479.0	-0.016363636363636365	-18.0	-0.22755102040816327	223.0	1.5228924588645938E12	1.522892458872E12	2542.96875	17792.0	0.0	0.0	
-0.5190839694656488	-34.0	0.5190839694656488	34.0	1.5572519083969465	-102.0	0.5060240963855422	1285.0	9.180722891566266	2005.0	0.04819277108433735	2043.0	-0.43727272727272726	481.0	-0.022727272727272728	-25.0	-0.22448979591836737	220.0	1.5228924588685E12	1.522892458874E12	2546.875	17920.0	0.0	0.0	
-0.549618320610687	-26.0	0.3969465648854962	36.0	1.3740458015267174	-90.0	0.4819277108433735	1286.0	9.168674698795181	2007.0	0.04819277108433735	2043.0	-0.43454545454545457	478.0	-0.031818181818181815	-35.0	-0.22653061224489798	222.0	1.5228924588724063E12	1.522892458923E12	2550.78125	18048.0	0.0	0.0	
-0.564885496183206	-38.0	0.5801526717557252	37.0	1.5877862595419847	-104.0	0.4819277108433735	1286.0	9.168674698795181	2007.0	0.04819277108433735	2043.0	-0.43454545454545457	478.0	-0.035454545454545454	-39.0	-0.22653061224489798	222.0	1.5228924588763125E12	1.522892458924E12	2554.6875	18176.0	0.0	0.0	
-0.5343511450381679	-34.0	0.5190839694656488	35.0	1.5572519083969465	-102.0	0.46987951807228917	1286.0	9.168674698795181	2008.0	0.024096385542168676	2045.0	-0.4409090909090909	485.0	-0.035454545454545454	-39.0	-0.22653061224489798	222.0	1.5228924588802188E12	1.522892458925E12	2558.59375	18304.0	0.0	0.0	
-0.6106870229007634	-40.0	0.6106870229007634	40.0	1.6793893129770991	-110.0	0.49397590361445787	1286.0	9.168674698795181	2006.0	0.012048192771084338	2046.0	-0.44	484.0	-0.022727272727272728	-25.0	-0.22448979591836737	220.0	1.522892458884125E12	1.522892458926E12	2562.5	18432.0	0.0	0.0	
-0.5801526717557252	-46.0	0.7022900763358778	38.0	1.4809160305343512	-97.0	0.46987951807228917	1284.0	9.19277108433735	2008.0	0.0	2047.0	-0.44181818181818183	486.0	-0.02727272727272727	-30.0	-0.22244897959183677	218.0	1.5228924588880313E12	1.522892458927E12	2566.40625	18560.0	0.0	0.0	
-0.9312977099236641	-45.0	0.6870229007633587	61.0	1.5877862595419847	-104.0	0.44578313253012053	1285.0	9.180722891566266	2010.0	0.0	2047.0	-0.44	484.0	-0.014545454545454545	-16.0	-0.22653061224489798	222.0	1.5228924588919375E12	1.522892458928E12	2570.3125	18688.0	0.0	0.0	
-0.6870229007633587	-45.0	0.6870229007633587	45.0	1.5725190839694656	-103.0	0.46987951807228917	1284.0	9.19277108433735	2008.0	0.04819277108433735	2043.0	-0.4381818181818182	482.0	-0.02	-22.0	-0.22551020408163266	221.0	1.5228924588958438E12	1.522892458933E12	2574.21875	18816.0	0.0	0.0	
-0.7480916030534351	-42.0	0.6412213740458015	49.0	1.5419847328244274	-101.0	0.4819277108433735	1285.0	9.180722891566266	2007.0	0.04819277108433735	2043.0	-0.44272727272727275	487.0	-0.028181818181818183	-31.0	-0.22040816326530616	216.0	1.52289245889975E12	1.522892458935E12	2578.125	18944.0	0.0	0.0	
-0.7480916030534351	-40.0	0.6106870229007634	49.0	1.7251908396946565	-113.0	0.46987951807228917	1285.0	9.180722891566266	2008.0	0.060240963855421686	2042.0	-0.44272727272727275	487.0	-0.028181818181818183	-31.0	-0.22040816326530616	216.0	1.5228924589036563E12	1.522892458937E12	2582.03125	19072.0	0.0	0.0	
-0.6870229007633587	-41.0	0.6259541984732824	45.0	1.5267175572519083	-100.0	0.49397590361445787	1285.0	9.180722891566266	2006.0	0.07228915662650603	2041.0	-0.44363636363636366	488.0	-0.03727272727272727	-41.0	-0.22755102040816327	223.0	1.5228924589075625E12	1.522892458938E12	2585.9375	19200.0	0.0	0.0	
-0.4580152671755725	-38.0	0.5801526717557252	30.0	1.5725190839694656	-103.0	0.46987951807228917	1285.0	9.180722891566266	2008.0	0.04819277108433735	2043.0	-0.44	484.0	-0.024545454545454544	-27.0	-0.22755102040816327	223.0	1.5228924589114688E12	1.522892458939E12	2589.84375	19328.0	0.0	0.0	
-0.6564885496183206	-37.0	0.564885496183206	43.0	1.6793893129770991	-110.0	0.5060240963855422	1285.0	9.180722891566266	2005.0	0.012048192771084338	2046.0	-0.4445454545454545	489.0	-0.03363636363636364	-37.0	-0.22142857142857145	217.0	1.522892458915375E12	1.52289245894E12	2593.75	19456.0	0.0	0.0	
-0.564885496183206	-44.0	0.6717557251908397	37.0	1.3893129770992365	-91.0	0.5060240963855422	1286.0	9.168674698795181	2005.0	0.012048192771084338	2046.0	-0.44363636363636366	488.0	-0.031818181818181815	-35.0	-0.22551020408163266	221.0	1.5228924589192813E12	1.522892458941E12	2597.65625	19584.0	0.0	0.0	
-0.6717557251908397	-36.0	0.549618320610687	44.0	1.7251908396946565	-113.0	0.5301204819277109	1285.0	9.180722891566266	2003.0	0.024096385542168676	2045.0	-0.44	484.0	-0.026363636363636363	-29.0	-0.22653061224489798	222.0	1.5228924589231875E12	1.522892458942E12	2601.5625	19712.0	0.0	0.0	
-0.5954198473282443	-36.0	0.549618320610687	39.0	1.618320610687023	-106.0	0.5662650602409639	1285.0	9.180722891566266	2000.0	0.03614457831325302	2044.0	-0.44272727272727275	487.0	-0.03272727272727273	-36.0	-0.22244897959183677	218.0	1.5228924589270938E12	1.522892458943E12	2605.46875	19840.0	0.0	0.0	
-0.6412213740458015	-56.0	0.8549618320610687	42.0	1.6793893129770991	-110.0	0.5301204819277109	1285.0	9.180722891566266	2003.0	0.0	2047.0	-0.44272727272727275	487.0	-0.03272727272727273	-36.0	-0.22244897959183677	218.0	1.522892458931E12	1.522892458944E12	2609.375	19968.0	0.0	0.0	
-0.5190839694656488	-45.0	0.6870229007633587	34.0	1.7251908396946565	-113.0	0.5542168674698795	1285.0	9.180722891566266	2001.0	0.012048192771084338	2046.0	-0.44363636363636366	488.0	-0.02909090909090909	-32.0	-0.22755102040816327	223.0	1.5228924589349063E12	1.522892458945E12	2613.28125	20096.0	0.0	0.0	
-0.549618320610687	-51.0	0.7786259541984732	36.0	1.5725190839694656	-103.0	0.5421686746987953	1284.0	9.19277108433735	2002.0	0.024096385542168676	2045.0	-0.44272727272727275	487.0	-0.025454545454545455	-28.0	-0.22755102040816327	223.0	1.5228924589388125E12	1.522892458946E12	2617.1875	20224.0	0.0	0.0	
-0.6106870229007634	-40.0	0.6106870229007634	40.0	1.6030534351145038	-105.0	0.5060240963855422	1285.0	9.180722891566266	2005.0	0.012048192771084338	2046.0	-0.4390909090909091	483.0	-0.017272727272727273	-19.0	-0.21530612244897962	211.0	1.5228924589427188E12	1.522892458952E12	2621.09375	20352.0	0.0	0.0	
-0.2900763358778626	-29.0	0.4427480916030534	19.0	1.4351145038167938	-94.0	0.49397590361445787	1284.0	9.19277108433735	2006.0	0.0	2047.0	-0.44272727272727275	487.0	-0.024545454545454544	-27.0	-0.22040816326530616	216.0	1.522892458946625E12	1.522892458953E12	2625.0	20480.0	0.0	0.0	
-0.5343511450381679	-31.0	0.47328244274809156	35.0	1.4961832061068703	-98.0	0.5180722891566265	1282.0	9.216867469879519	2004.0	-0.024096385542168676	2049.0	-0.4409090909090909	485.0	-0.02909090909090909	-32.0	-0.22346938775510206	219.0	1.5228924589505313E12	1.522892458954E12	2628.90625	20608.0	0.0	0.0	
-0.8396946564885496	-23.0	0.3511450381679389	55.0	1.4809160305343512	-97.0	0.5542168674698795	1285.0	9.180722891566266	2001.0	-0.024096385542168676	2049.0	-0.44272727272727275	487.0	-0.03636363636363636	-40.0	-0.22142857142857145	217.0	1.5228924589544375E12	1.522892458965E12	2632.8125	20736.0	0.0	0.0	
-0.6564885496183206	-53.0	0.8091603053435115	43.0	1.5419847328244274	-101.0	0.5301204819277109	1286.0	9.168674698795181	2003.0	-0.024096385542168676	2049.0	-0.44272727272727275	487.0	-0.03636363636363636	-40.0	-0.22142857142857145	217.0	1.5228924589583438E12	1.522892458966E12	2636.71875	20864.0	0.0	0.0	
-0.41221374045801523	-41.0	0.6259541984732824	27.0	1.3740458015267174	-90.0	0.5060240963855422	1286.0	9.168674698795181	2005.0	-0.024096385542168676	2049.0	-0.44	484.0	-0.023636363636363636	-26.0	-0.22346938775510206	219.0	1.52289245896225E12	1.522892458967E12	2640.625	20992.0	0.0	0.0	
-0.732824427480916	-29.0	0.4427480916030534	48.0	1.297709923664122	-85.0	0.49397590361445787	1285.0	9.180722891566266	2006.0	-0.03614457831325302	2050.0	-0.44	484.0	-0.02090909090909091	-23.0	-0.22142857142857145	217.0	1.5228924589661563E12	1.522892458979E12	2644.53125	21120.0	0.0	0.0	
-0.564885496183206	-50.0	0.7633587786259541	37.0	1.465648854961832	-96.0	0.5060240963855422	1286.0	9.168674698795181	2005.0	-0.04819277108433735	2051.0	-0.44636363636363635	491.0	-0.035454545454545454	-39.0	-0.22448979591836737	220.0	1.5228924589700625E12	1.52289245898E12	2648.4375	21248.0	0.0	0.0	
-0.5801526717557252	-36.0	0.549618320610687	38.0	1.297709923664122	-85.0	0.5180722891566265	1286.0	9.168674698795181	2004.0	-0.060240963855421686	2052.0	-0.4381818181818182	482.0	-0.026363636363636363	-29.0	-0.22448979591836737	220.0	1.5228924589739688E12	1.522892458981E12	2652.34375	21376.0	0.0	0.0	
-0.5954198473282443	-44.0	0.6717557251908397	39.0	1.465648854961832	-96.0	0.5060240963855422	1283.0	9.204819277108435	2005.0	-0.04819277108433735	2051.0	-0.43	473.0	-0.006363636363636364	-7.0	-0.22346938775510206	219.0	1.522892458977875E12	1.522892458996E12	2656.25	21504.0	0.0	0.0	
-0.6564885496183206	-59.0	0.9007633587786259	43.0	1.3282442748091603	-87.0	0.4819277108433735	1285.0	9.180722891566266	2007.0	-0.060240963855421686	2052.0	-0.43454545454545457	478.0	-0.028181818181818183	-31.0	-0.22346938775510206	219.0	1.5228924589817813E12	1.522892458997E12	2660.15625	21632.0	0.0	0.0	
-0.7480916030534351	-49.0	0.7480916030534351	49.0	1.5114503816793892	-99.0	0.45783132530120485	1285.0	9.180722891566266	2009.0	-0.060240963855421686	2052.0	-0.43454545454545457	478.0	-0.028181818181818183	-31.0	-0.22346938775510206	219.0	1.5228924589856875E12	1.522892458998E12	2664.0625	21760.0	0.0	0.0	
-0.6564885496183206	-54.0	0.8244274809160305	43.0	1.5725190839694656	-103.0	0.4819277108433735	1284.0	9.19277108433735	2007.0	-0.03614457831325302	2050.0	-0.43727272727272726	481.0	-0.03090909090909091	-34.0	-0.2306122448979592	226.0	1.5228924589895938E12	1.522892459E12	2667.96875	21888.0	0.0	0.0	
-0.9923664122137404	-40.0	0.6106870229007634	65.0	1.6030534351145038	-105.0	0.5060240963855422	1286.0	9.168674698795181	2005.0	-0.024096385542168676	2049.0	-0.4445454545454545	489.0	-0.023636363636363636	-26.0	-0.22244897959183677	218.0	1.5228924589935E12	1.522892459001E12	2671.875	22016.0	0.0	0.0	
-0.7175572519083969	-44.0	0.6717557251908397	47.0	1.5114503816793892	-99.0	0.5301204819277109	1286.0	9.168674698795181	2003.0	-0.04819277108433735	2051.0	-0.43454545454545457	478.0	-0.01	-11.0	-0.22653061224489798	222.0	1.5228924589974063E12	1.522892459002E12	2675.78125	22144.0	0.0	0.0	
-0.6412213740458015	-56.0	0.8549618320610687	42.0	1.4809160305343512	-97.0	0.5180722891566265	1284.0	9.19277108433735	2004.0	-0.04819277108433735	2051.0	-0.4390909090909091	483.0	-0.03363636363636364	-37.0	-0.22653061224489798	222.0	1.5228924590013125E12	1.522892459011E12	2679.6875	22272.0	0.0	0.0	
-0.732824427480916	-56.0	0.8549618320610687	48.0	1.450381679389313	-95.0	0.49397590361445787	1285.0	9.180722891566266	2006.0	-0.060240963855421686	2052.0	-0.44636363636363635	491.0	-0.022727272727272728	-25.0	-0.22346938775510206	219.0	1.5228924590052188E12	1.522892459013E12	2683.59375	22400.0	0.0	0.0	
-0.732824427480916	-41.0	0.6259541984732824	48.0	1.4198473282442747	-93.0	0.45783132530120485	1285.0	9.180722891566266	2009.0	-0.08433734939759037	2054.0	-0.43727272727272726	481.0	-0.017272727272727273	-19.0	-0.21734693877551023	213.0	1.522892459009125E12	1.522892459014E12	2687.5	22528.0	0.0	0.0	
-0.6870229007633587	-55.0	0.8396946564885496	45.0	1.465648854961832	-96.0	0.42168674698795183	1285.0	9.180722891566266	2012.0	-0.07228915662650603	2053.0	-0.43727272727272726	481.0	-0.017272727272727273	-19.0	-0.21734693877551023	213.0	1.5228924590130313E12	1.522892459029E12	2691.40625	22656.0	0.0	0.0	
-0.7633587786259541	-50.0	0.7633587786259541	50.0	1.4961832061068703	-98.0	0.39759036144578314	1285.0	9.180722891566266	2014.0	-0.04819277108433735	2051.0	-0.44	484.0	-0.03272727272727273	-36.0	-0.2285714285714286	224.0	1.5228924590169375E12	1.52289245903E12	2695.3125	22784.0	0.0	0.0	
-0.9618320610687022	-42.0	0.6412213740458015	63.0	1.4351145038167938	-94.0	0.43373493975903615	1286.0	9.168674698795181	2011.0	-0.04819277108433735	2051.0	-0.44363636363636366	488.0	-0.02727272727272727	-30.0	-0.22244897959183677	218.0	1.5228924590208438E12	1.522892459031E12	2699.21875	22912.0	0.0	0.0	
-0.8702290076335878	-53.0	0.8091603053435115	57.0	1.648854961832061	-108.0	0.42168674698795183	1284.0	9.19277108433735	2012.0	-0.024096385542168676	2049.0	-0.43636363636363634	480.0	-0.035454545454545454	-39.0	-0.22551020408163266	221.0	1.52289245902475E12	1.522892459033E12	2703.125	23040.0	0.0	0.0	
-0.7786259541984732	-48.0	0.732824427480916	51.0	1.7099236641221374	-112.0	0.4096385542168675	1284.0	9.19277108433735	2013.0	-0.012048192771084338	2048.0	-0.4390909090909091	483.0	-0.01818181818181818	-20.0	-0.22244897959183677	218.0	1.5228924590286563E12	1.522892459034E12	2707.03125	23168.0	0.0	0.0	
-0.9770992366412213	-52.0	0.7938931297709924	64.0	1.450381679389313	-95.0	0.39759036144578314	1284.0	9.19277108433735	2014.0	-0.012048192771084338	2048.0	-0.44363636363636366	488.0	-0.024545454545454544	-27.0	-0.22346938775510206	219.0	1.5228924590325625E12	1.522892459035E12	2710.9375	23296.0	0.0	0.0	
-0.732824427480916	-44.0	0.6717557251908397	48.0	1.7251908396946565	-113.0	0.3855421686746988	1286.0	9.168674698795181	2015.0	-0.012048192771084338	2048.0	-0.44181818181818183	486.0	-0.034545454545454546	-38.0	-0.2285714285714286	224.0	1.5228924590364688E12	1.522892459072E12	2714.84375	23424.0	0.0	0.0	
-0.9007633587786259	-30.0	0.4580152671755725	59.0	1.4045801526717556	-92.0	0.4096385542168675	1285.0	9.180722891566266	2013.0	-0.03614457831325302	2050.0	-0.44181818181818183	486.0	-0.034545454545454546	-38.0	-0.2285714285714286	224.0	1.522892459040375E12	1.522892459074E12	2718.75	23552.0	0.0	0.0	
-0.7022900763358778	-36.0	0.549618320610687	46.0	1.3893129770992365	-91.0	0.4096385542168675	1284.0	9.19277108433735	2013.0	-0.060240963855421686	2052.0	-0.44	484.0	-0.03	-33.0	-0.22142857142857145	217.0	1.5228924590442813E12	1.522892459074E12	2722.65625	23680.0	0.0	0.0	
-0.916030534351145	-44.0	0.6717557251908397	60.0	1.7099236641221374	-112.0	0.42168674698795183	1285.0	9.180722891566266	2012.0	-0.04819277108433735	2051.0	-0.4354545454545454	479.0	-0.03090909090909091	-34.0	-0.22346938775510206	219.0	1.5228924590481875E12	1.522892459076E12	2726.5625	23808.0	0.0	0.0	
-1.083969465648855	-49.0	0.7480916030534351	71.0	1.618320610687023	-106.0	0.42168674698795183	1285.0	9.180722891566266	2012.0	-0.04819277108433735	2051.0	-0.44	484.0	-0.031818181818181815	-35.0	-0.2285714285714286	224.0	1.5228924590520938E12	1.522892459077E12	2730.46875	23936.0	0.0	0.0	
-0.8549618320610687	-62.0	0.9465648854961831	56.0	1.618320610687023	-106.0	0.42168674698795183	1286.0	9.168674698795181	2012.0	-0.060240963855421686	2052.0	-0.4354545454545454	479.0	-0.02090909090909091	-23.0	-0.22551020408163266	221.0	1.522892459056E12	1.52289245911E12	2734.375	24064.0	0.0	0.0	
-0.8091603053435115	-58.0	0.8854961832061068	53.0	1.4961832061068703	-98.0	0.42168674698795183	1284.0	9.19277108433735	2012.0	-0.03614457831325302	2050.0	-0.44363636363636366	488.0	-0.031818181818181815	-35.0	-0.22244897959183677	218.0	1.5228924590599063E12	1.52289245911E12	2738.28125	24192.0	0.0	0.0	
-0.9312977099236641	-38.0	0.5801526717557252	61.0	1.8625954198473282	-122.0	0.45783132530120485	1285.0	9.180722891566266	2009.0	-0.04819277108433735	2051.0	-0.44363636363636366	488.0	-0.034545454545454546	-38.0	-0.22244897959183677	218.0	1.5228924590638125E12	1.522892459111E12	2742.1875	24320.0	0.0	0.0	
-1.083969465648855	-58.0	0.8854961832061068	71.0	1.7404580152671756	-114.0	0.5180722891566265	1286.0	9.168674698795181	2004.0	-0.04819277108433735	2051.0	-0.44636363636363635	491.0	-0.034545454545454546	-38.0	-0.2285714285714286	224.0	1.5228924590677188E12	1.522892459112E12	2746.09375	24448.0	0.0	0.0	
-0.9923664122137404	-51.0	0.7786259541984732	65.0	1.66412213740458	-109.0	0.5180722891566265	1286.0	9.168674698795181	2004.0	-0.024096385542168676	2049.0	-0.4409090909090909	485.0	-0.025454545454545455	-28.0	-0.22653061224489798	222.0	1.522892459071625E12	1.522892459112E12	2750.0	24576.0	0.0	0.0	
-1.099236641221374	-46.0	0.7022900763358778	72.0	1.7251908396946565	-113.0	0.5180722891566265	1284.0	9.19277108433735	2004.0	-0.03614457831325302	2050.0	-0.44363636363636366	488.0	-0.03090909090909091	-34.0	-0.22244897959183677	218.0	1.5228924590755313E12	1.522892459113E12	2753.90625	24704.0	0.0	0.0	
-0.9618320610687022	-50.0	0.7633587786259541	63.0	1.5877862595419847	-104.0	0.5180722891566265	1285.0	9.180722891566266	2004.0	-0.03614457831325302	2050.0	-0.44272727272727275	487.0	-0.034545454545454546	-38.0	-0.2285714285714286	224.0	1.5228924590794375E12	1.522892459114E12	2757.8125	24832.0	0.0	0.0	
-1.0687022900763359	-46.0	0.7022900763358778	70.0	1.618320610687023	-106.0	0.5060240963855422	1284.0	9.19277108433735	2005.0	-0.024096385542168676	2049.0	-0.44	484.0	-0.023636363636363636	-26.0	-0.22755102040816327	223.0	1.5228924590833438E12	1.522892459114E12	2761.71875	24960.0	0.0	0.0	
-1.0229007633587786	-31.0	0.47328244274809156	67.0	1.7709923664122136	-116.0	0.5180722891566265	1285.0	9.180722891566266	2004.0	-0.03614457831325302	2050.0	-0.4381818181818182	482.0	-0.014545454545454545	-16.0	-0.22244897959183677	218.0	1.52289245908725E12	1.522892459115E12	2765.625	25088.0	0.0	0.0	
-1.129770992366412	-47.0	0.7175572519083969	74.0	1.5267175572519083	-100.0	0.5060240963855422	1284.0	9.19277108433735	2005.0	-0.024096385542168676	2049.0	-0.4381818181818182	482.0	-0.014545454545454545	-16.0	-0.22244897959183677	218.0	1.5228924590911563E12	1.522892459116E12	2769.53125	25216.0	0.0	0.0	
-0.8244274809160305	-56.0	0.8549618320610687	54.0	1.8015267175572518	-118.0	0.5421686746987953	1285.0	9.180722891566266	2002.0	-0.012048192771084338	2048.0	-0.44363636363636366	488.0	-0.016363636363636365	-18.0	-0.21836734693877552	214.0	1.5228924590950625E12	1.522892459116E12	2773.4375	25344.0	0.0	0.0	
-1.083969465648855	-54.0	0.8244274809160305	71.0	1.5114503816793892	-99.0	0.5662650602409639	1286.0	9.168674698795181	2000.0	-0.024096385542168676	2049.0	-0.44181818181818183	486.0	-0.02181818181818182	-24.0	-0.22551020408163266	221.0	1.5228924590989688E12	1.522892459117E12	2777.34375	25472.0	0.0	0.0	
-1.129770992366412	-64.0	0.9770992366412213	74.0	1.6030534351145038	-105.0	0.5421686746987953	1285.0	9.180722891566266	2002.0	-0.024096385542168676	2049.0	-0.44272727272727275	487.0	-0.035454545454545454	-39.0	-0.22040816326530616	216.0	1.522892459102875E12	1.522892459118E12	2781.25	25600.0	0.0	0.0	
-1.0381679389312977	-46.0	0.7022900763358778	68.0	1.5267175572519083	-100.0	0.5301204819277109	1285.0	9.180722891566266	2003.0	-0.012048192771084338	2048.0	-0.4409090909090909	485.0	-0.03272727272727273	-36.0	-0.22551020408163266	221.0	1.5228924591067813E12	1.522892459119E12	2785.15625	25728.0	0.0	0.0	
-1.2366412213740459	-68.0	1.0381679389312977	81.0	1.5267175572519083	-100.0	0.5180722891566265	1283.0	9.204819277108435	2004.0	0.0	2047.0	-0.4390909090909091	483.0	-0.02090909090909091	-23.0	-0.22653061224489798	222.0	1.5228924591106875E12	1.522892459121E12	2789.0625	25856.0	0.0	0.0	
-0.9770992366412213	-62.0	0.9465648854961831	64.0	1.3893129770992365	-91.0	0.49397590361445787	1285.0	9.180722891566266	2006.0	0.0	2047.0	-0.44272727272727275	487.0	-0.03363636363636364	-37.0	-0.22448979591836737	220.0	1.5228924591145938E12	1.522892459123E12	2792.96875	25984.0	0.0	0.0	
-1.114503816793893	-64.0	0.9770992366412213	73.0	1.5419847328244274	-101.0	0.49397590361445787	1284.0	9.19277108433735	2006.0	0.012048192771084338	2046.0	-0.44272727272727275	487.0	-0.03363636363636364	-37.0	-0.22448979591836737	220.0	1.5228924591185E12	1.522892459124E12	2796.875	26112.0	0.0	0.0	
-1.0381679389312977	-50.0	0.7633587786259541	68.0	1.618320610687023	-106.0	0.4819277108433735	1286.0	9.168674698795181	2007.0	0.012048192771084338	2046.0	-0.4318181818181818	475.0	-0.02909090909090909	-32.0	-0.22448979591836737	220.0	1.5228924591224063E12	1.522892459137E12	2800.78125	26240.0	0.0	0.0	
-1.0381679389312977	-49.0	0.7480916030534351	68.0	1.5725190839694656	-103.0	0.49397590361445787	1286.0	9.168674698795181	2006.0	0.03614457831325302	2044.0	-0.4309090909090909	474.0	-0.03	-33.0	-0.22448979591836737	220.0	1.5228924591263125E12	1.522892459137E12	2804.6875	26368.0	0.0	0.0	
-1.0076335877862594	-30.0	0.4580152671755725	66.0	1.618320610687023	-106.0	0.5060240963855422	1284.0	9.19277108433735	2005.0	0.03614457831325302	2044.0	-0.44363636363636366	488.0	-0.034545454545454546	-38.0	-0.22448979591836737	220.0	1.5228924591302188E12	1.522892459138E12	2808.59375	26496.0	0.0	0.0	
-1.114503816793893	-51.0	0.7786259541984732	73.0	1.5419847328244274	-101.0	0.5301204819277109	1285.0	9.180722891566266	2003.0	0.0	2047.0	-0.44	484.0	-0.022727272727272728	-25.0	-0.22346938775510206	219.0	1.522892459134125E12	1.522892459143E12	2812.5	26624.0	0.0	0.0	
-0.916030534351145	-49.0	0.7480916030534351	60.0	1.5419847328244274	-101.0	0.5060240963855422	1285.0	9.180722891566266	2005.0	0.012048192771084338	2046.0	-0.4381818181818182	482.0	-0.019090909090909092	-21.0	-0.22346938775510206	219.0	1.5228924591380313E12	1.522892459143E12	2816.40625	26752.0	0.0	0.0	
-1.2061068702290076	-54.0	0.8244274809160305	79.0	1.4351145038167938	-94.0	0.49397590361445787	1286.0	9.168674698795181	2006.0	0.012048192771084338	2046.0	-0.44272727272727275	487.0	-0.03727272727272727	-41.0	-0.22448979591836737	220.0	1.5228924591419375E12	1.522892459144E12	2820.3125	26880.0	0.0	0.0	
-1.083969465648855	-54.0	0.8244274809160305	71.0	1.5419847328244274	-101.0	0.49397590361445787	1287.0	9.156626506024097	2006.0	0.012048192771084338	2046.0	-0.44272727272727275	487.0	-0.03727272727272727	-41.0	-0.22448979591836737	220.0	1.5228924591458438E12	1.522892459158E12	2824.21875	27008.0	0.0	0.0	
-0.7938931297709924	-42.0	0.6412213740458015	52.0	1.6030534351145038	-105.0	0.5180722891566265	1286.0	9.168674698795181	2004.0	0.03614457831325302	2044.0	-0.43454545454545457	478.0	-0.01818181818181818	-20.0	-0.2295918367346939	225.0	1.52289245914975E12	1.522892459159E12	2828.125	27136.0	0.0	0.0	
-1.1603053435114503	-59.0	0.9007633587786259	76.0	1.83206106870229	-120.0	0.5542168674698795	1287.0	9.156626506024097	2001.0	0.03614457831325302	2044.0	-0.44	484.0	-0.01818181818181818	-20.0	-0.22346938775510206	219.0	1.5228924591536563E12	1.52289245916E12	2832.03125	27264.0	0.0	0.0	
-1.0076335877862594	-44.0	0.6717557251908397	66.0	1.6946564885496183	-111.0	0.5662650602409639	1287.0	9.156626506024097	2000.0	0.024096385542168676	2045.0	-0.43272727272727274	476.0	-0.017272727272727273	-19.0	-0.22551020408163266	221.0	1.5228924591575625E12	1.522892459169E12	2835.9375	27392.0	0.0	0.0	
-0.8854961832061068	-55.0	0.8396946564885496	58.0	1.618320610687023	-106.0	0.5783132530120483	1285.0	9.180722891566266	1999.0	0.012048192771084338	2046.0	-0.43454545454545457	478.0	-0.03090909090909091	-34.0	-0.22653061224489798	222.0	1.5228924591614688E12	1.52289245917E12	2839.84375	27520.0	0.0	0.0	
-1.3129770992366412	-54.0	0.8244274809160305	86.0	1.5419847328244274	-101.0	0.5662650602409639	1286.0	9.168674698795181	2000.0	0.024096385542168676	2045.0	-0.44545454545454544	490.0	-0.024545454545454544	-27.0	-0.21938775510204084	215.0	1.522892459165375E12	1.522892459171E12	2843.75	27648.0	0.0	0.0	
-1.0381679389312977	-57.0	0.8702290076335878	68.0	1.4198473282442747	-93.0	0.49397590361445787	1286.0	9.168674698795181	2006.0	0.024096385542168676	2045.0	-0.4381818181818182	482.0	-0.019090909090909092	-21.0	-0.21734693877551023	213.0	1.5228924591692813E12	1.522892459176E12	2847.65625	27776.0	0.0	0.0	
-1.114503816793893	-57.0	0.8702290076335878	73.0	1.450381679389313	-95.0	0.5421686746987953	1284.0	9.19277108433735	2002.0	0.012048192771084338	2046.0	-0.4381818181818182	482.0	-0.019090909090909092	-21.0	-0.21734693877551023	213.0	1.5228924591731875E12	1.522892459178E12	2851.5625	27904.0	0.0	0.0	
-1.0534351145038168	-53.0	0.8091603053435115	69.0	1.3893129770992365	-91.0	0.5180722891566265	1286.0	9.168674698795181	2004.0	0.03614457831325302	2044.0	-0.4381818181818182	482.0	-0.026363636363636363	-29.0	-0.21938775510204084	215.0	1.5228924591770938E12	1.522892459179E12	2855.46875	28032.0	0.0	0.0	
-1.083969465648855	-38.0	0.5801526717557252	71.0	1.465648854961832	-96.0	0.5060240963855422	1285.0	9.180722891566266	2005.0	0.03614457831325302	2044.0	-0.44272727272727275	487.0	-0.024545454545454544	-27.0	-0.22040816326530616	216.0	1.522892459181E12	1.522892459221E12	2859.375	28160.0	0.0	0.0	
-0.7786259541984732	-55.0	0.8396946564885496	51.0	1.2671755725190839	-83.0	0.5060240963855422	1285.0	9.180722891566266	2005.0	0.012048192771084338	2046.0	-0.44272727272727275	487.0	-0.03090909090909091	-34.0	-0.22755102040816327	223.0	1.5228924591849063E12	1.522892459222E12	2863.28125	28288.0	0.0	0.0	
-1.2213740458015268	-54.0	0.8244274809160305	80.0	1.6030534351145038	-105.0	0.49397590361445787	1285.0	9.180722891566266	2006.0	0.024096385542168676	2045.0	-0.43727272727272726	481.0	-0.035454545454545454	-39.0	-0.22653061224489798	222.0	1.5228924591888125E12	1.522892459224E12	2867.1875	28416.0	0.0	0.0	
-1.1450381679389312	-37.0	0.564885496183206	75.0	1.5572519083969465	-102.0	0.46987951807228917	1284.0	9.19277108433735	2008.0	0.012048192771084338	2046.0	-0.43636363636363634	480.0	-0.01818181818181818	-20.0	-0.22244897959183677	218.0	1.5228924591927188E12	1.522892459226E12	2871.09375	28544.0	0.0	0.0	
-0.9770992366412213	-60.0	0.916030534351145	64.0	1.3740458015267174	-90.0	0.4819277108433735	1285.0	9.180722891566266	2007.0	0.024096385542168676	2045.0	-0.44363636363636366	488.0	-0.03090909090909091	-34.0	-0.22653061224489798	222.0	1.522892459196625E12	1.522892459227E12	2875.0	28672.0	0.0	0.0	
-1.2366412213740459	-51.0	0.7786259541984732	81.0	1.4045801526717556	-92.0	0.46987951807228917	1285.0	9.180722891566266	2008.0	0.012048192771084338	2046.0	-0.44363636363636366	488.0	-0.03090909090909091	-34.0	-0.22653061224489798	222.0	1.5228924592005313E12	1.522892459228E12	2878.90625	28800.0	0.0	0.0	
-1.2061068702290076	-54.0	0.8244274809160305	79.0	1.5725190839694656	-103.0	0.49397590361445787	1286.0	9.168674698795181	2006.0	0.03614457831325302	2044.0	-0.4381818181818182	482.0	-0.035454545454545454	-39.0	-0.22448979591836737	220.0	1.5228924592044375E12	1.522892459229E12	2882.8125	28928.0	0.0	0.0	
-0.7633587786259541	-61.0	0.9312977099236641	50.0	1.3893129770992365	-91.0	0.49397590361445787	1285.0	9.180722891566266	2006.0	0.04819277108433735	2043.0	-0.44363636363636366	488.0	-0.02727272727272727	-30.0	-0.22142857142857145	217.0	1.5228924592083438E12	1.522892459229E12	2886.71875	29056.0	0.0	0.0	
-1.0534351145038168	-44.0	0.6717557251908397	69.0	1.4961832061068703	-98.0	0.46987951807228917	1287.0	9.156626506024097	2008.0	0.03614457831325302	2044.0	-0.43636363636363634	480.0	-0.035454545454545454	-39.0	-0.22755102040816327	223.0	1.52289245921225E12	1.52289245923E12	2890.625	29184.0	0.0	0.0	
-1.1603053435114503	-44.0	0.6717557251908397	76.0	1.5877862595419847	-104.0	0.49397590361445787	1286.0	9.168674698795181	2006.0	0.04819277108433735	2043.0	-0.4409090909090909	485.0	-0.023636363636363636	-26.0	-0.22653061224489798	222.0	1.5228924592161563E12	1.522892459231E12	2894.53125	29312.0	0.0	0.0	
-1.2061068702290076	-47.0	0.7175572519083969	79.0	1.465648854961832	-96.0	0.5421686746987953	1286.0	9.168674698795181	2002.0	0.04819277108433735	2043.0	-0.4445454545454545	489.0	-0.02727272727272727	-30.0	-0.22346938775510206	219.0	1.5228924592200625E12	1.522892459231E12	2898.4375	29440.0	0.0	0.0	
-1.099236641221374	-43.0	0.6564885496183206	72.0	1.5419847328244274	-101.0	0.5542168674698795	1286.0	9.168674698795181	2001.0	0.03614457831325302	2044.0	-0.4445454545454545	489.0	-0.03636363636363636	-40.0	-0.2295918367346939	225.0	1.5228924592239688E12	1.522892459232E12	2902.34375	29568.0	0.0	0.0	
-1.1755725190839694	-58.0	0.8854961832061068	77.0	1.4198473282442747	-93.0	0.5903614457831325	1286.0	9.168674698795181	1998.0	0.04819277108433735	2043.0	-0.4390909090909091	483.0	-0.03636363636363636	-40.0	-0.2295918367346939	225.0	1.522892459227875E12	1.522892459237E12	2906.25	29696.0	0.0	0.0	
-1.1908396946564885	-55.0	0.8396946564885496	78.0	1.5877862595419847	-104.0	0.5903614457831325	1284.0	9.19277108433735	1998.0	0.04819277108433735	2043.0	-0.43727272727272726	481.0	-0.014545454545454545	-16.0	-0.22346938775510206	219.0	1.5228924592317813E12	1.522892459238E12	2910.15625	29824.0	0.0	0.0	
-1.2671755725190839	-48.0	0.732824427480916	83.0	1.4809160305343512	-97.0	0.6024096385542169	1284.0	9.19277108433735	1997.0	0.08433734939759037	2040.0	-0.44363636363636366	488.0	-0.02727272727272727	-30.0	-0.22448979591836737	220.0	1.5228924592356875E12	1.522892459239E12	2914.0625	29952.0	0.0	0.0	
-1.282442748091603	-52.0	0.7938931297709924	84.0	1.3740458015267174	-90.0	0.5783132530120483	1284.0	9.19277108433735	1999.0	0.0963855421686747	2039.0	-0.43636363636363634	480.0	-0.01	-11.0	-0.21836734693877552	214.0	1.5228924592395938E12	1.522892459255E12	2917.96875	30080.0	0.0	0.0	
-1.0381679389312977	-45.0	0.6870229007633587	68.0	1.4198473282442747	-93.0	0.5662650602409639	1285.0	9.180722891566266	2000.0	0.10843373493975904	2038.0	-0.44181818181818183	486.0	-0.026363636363636363	-29.0	-0.22755102040816327	223.0	1.5228924592435E12	1.522892459256E12	2921.875	30208.0	0.0	0.0	
-1.114503816793893	-57.0	0.8702290076335878	73.0	1.3435114503816794	-88.0	0.5662650602409639	1284.0	9.19277108433735	2000.0	0.12048192771084337	2037.0	-0.44363636363636366	488.0	-0.031818181818181815	-35.0	-0.22040816326530616	216.0	1.5228924592474063E12	1.522892459256E12	2925.78125	30336.0	0.0	0.0	
-1.129770992366412	-56.0	0.8549618320610687	74.0	1.4351145038167938	-94.0	0.5421686746987953	1286.0	9.168674698795181	2002.0	0.12048192771084337	2037.0	-0.44363636363636366	488.0	-0.031818181818181815	-35.0	-0.22040816326530616	216.0	1.5228924592513125E12	1.522892459266E12	2929.6875	30464.0	0.0	0.0	
-1.0076335877862594	-61.0	0.9312977099236641	66.0	1.1908396946564885	-78.0	0.5421686746987953	1286.0	9.168674698795181	2002.0	0.0963855421686747	2039.0	-0.4409090909090909	485.0	-0.03636363636363636	-40.0	-0.2306122448979592	226.0	1.5228924592552188E12	1.522892459267E12	2933.59375	30592.0	0.0	0.0	
-0.8549618320610687	-57.0	0.8702290076335878	56.0	1.2671755725190839	-83.0	0.5180722891566265	1285.0	9.180722891566266	2004.0	0.10843373493975904	2038.0	-0.43727272727272726	481.0	-0.019090909090909092	-21.0	-0.22448979591836737	220.0	1.522892459259125E12	1.522892459267E12	2937.5	30720.0	0.0	0.0	
-0.7480916030534351	-49.0	0.7480916030534351	49.0	1.465648854961832	-96.0	0.5180722891566265	1285.0	9.180722891566266	2004.0	0.0963855421686747	2039.0	-0.4409090909090909	485.0	-0.02727272727272727	-30.0	-0.22244897959183677	218.0	1.5228924592630313E12	1.522892459272E12	2941.40625	30848.0	0.0	0.0	
-0.8549618320610687	-44.0	0.6717557251908397	56.0	1.2061068702290076	-79.0	0.5180722891566265	1286.0	9.168674698795181	2004.0	0.10843373493975904	2038.0	-0.44	484.0	-0.031818181818181815	-35.0	-0.22551020408163266	221.0	1.5228924592669375E12	1.522892459273E12	2945.3125	30976.0	0.0	0.0	
-0.9465648854961831	-44.0	0.6717557251908397	62.0	1.2366412213740459	-81.0	0.49397590361445787	1286.0	9.168674698795181	2006.0	0.10843373493975904	2038.0	-0.43636363636363634	480.0	-0.022727272727272728	-25.0	-0.22653061224489798	222.0	1.5228924592708438E12	1.522892459274E12	2949.21875	31104.0	0.0	0.0	
-0.8702290076335878	-39.0	0.5954198473282443	57.0	1.1755725190839694	-77.0	0.5180722891566265	1285.0	9.180722891566266	2004.0	0.0963855421686747	2039.0	-0.44545454545454544	490.0	-0.03090909090909091	-34.0	-0.22142857142857145	217.0	1.52289245927475E12	1.522892459286E12	2953.125	31232.0	0.0	0.0	
-0.8549618320610687	-47.0	0.7175572519083969	56.0	1.3587786259541985	-89.0	0.5301204819277109	1285.0	9.180722891566266	2003.0	0.10843373493975904	2038.0	-0.44545454545454544	490.0	-0.03090909090909091	-34.0	-0.22142857142857145	217.0	1.5228924592786563E12	1.522892459287E12	2957.03125	31360.0	0.0	0.0	
-1.0534351145038168	-51.0	0.7786259541984732	69.0	1.4045801526717556	-92.0	0.5301204819277109	1286.0	9.168674698795181	2003.0	0.12048192771084337	2037.0	-0.43727272727272726	481.0	-0.014545454545454545	-16.0	-0.22142857142857145	217.0	1.5228924592825625E12	1.522892459288E12	2960.9375	31488.0	0.0	0.0	
-1.1908396946564885	-43.0	0.6564885496183206	78.0	1.5114503816793892	-99.0	0.5662650602409639	1285.0	9.180722891566266	2000.0	0.12048192771084337	2037.0	-0.43727272727272726	481.0	-0.014545454545454545	-16.0	-0.22142857142857145	217.0	1.5228924592864688E12	1.522892459301E12	2964.84375	31616.0	0.0	0.0	
-0.9007633587786259	-34.0	0.5190839694656488	59.0	1.4961832061068703	-98.0	0.6265060240963856	1284.0	9.19277108433735	1995.0	0.12048192771084337	2037.0	-0.44181818181818183	486.0	-0.02727272727272727	-30.0	-0.22551020408163266	221.0	1.522892459290375E12	1.522892459302E12	2968.75	31744.0	0.0	0.0	
-0.8091603053435115	-45.0	0.6870229007633587	53.0	1.465648854961832	-96.0	0.6024096385542169	1286.0	9.168674698795181	1997.0	0.13253012048192772	2036.0	-0.44	484.0	-0.034545454545454546	-38.0	-0.2295918367346939	225.0	1.5228924592942813E12	1.522892459302E12	2972.65625	31872.0	0.0	0.0	
-0.7480916030534351	-55.0	0.8396946564885496	49.0	1.1755725190839694	-77.0	0.5903614457831325	1285.0	9.180722891566266	1998.0	0.10843373493975904	2038.0	-0.4381818181818182	482.0	-0.024545454545454544	-27.0	-0.2285714285714286	224.0	1.5228924592981875E12	1.522892459305E12	2976.5625	32000.0	0.0	0.0	
-0.7175572519083969	-53.0	0.8091603053435115	47.0	1.1908396946564885	-78.0	0.5542168674698795	1285.0	9.180722891566266	2001.0	0.0963855421686747	2039.0	-0.4381818181818182	482.0	-0.015454545454545455	-17.0	-0.22244897959183677	218.0	1.5228924593020938E12	1.522892459305E12	2980.46875	32128.0	0.0	0.0	
-0.6870229007633587	-46.0	0.7022900763358778	45.0	1.1603053435114503	-76.0	0.5421686746987953	1285.0	9.180722891566266	2002.0	0.10843373493975904	2038.0	-0.4381818181818182	482.0	-0.015454545454545455	-17.0	-0.22244897959183677	218.0	1.522892459306E12	1.522892459306E12	2984.375	32256.0	0.0	0.0	
-0.9312977099236641	-51.0	0.7786259541984732	61.0	1.2519083969465647	-82.0	0.5180722891566265	1286.0	9.168674698795181	2004.0	0.10843373493975904	2038.0	-0.43727272727272726	481.0	-0.031818181818181815	-35.0	-0.22551020408163266	221.0	1.5228924593099063E12	1.522892459317E12	2988.28125	32384.0	0.0	0.0	
-0.7480916030534351	-42.0	0.6412213740458015	49.0	1.0687022900763359	-70.0	0.5542168674698795	1284.0	9.19277108433735	2001.0	0.0963855421686747	2039.0	-0.43636363636363634	480.0	-0.02181818181818182	-24.0	-0.2295918367346939	225.0	1.5228924593138125E12	1.522892459324E12	2992.1875	32512.0	0.0	0.0	
-0.732824427480916	-45.0	0.6870229007633587	48.0	1.297709923664122	-85.0	0.5421686746987953	1285.0	9.180722891566266	2002.0	0.0963855421686747	2039.0	-0.44363636363636366	488.0	-0.035454545454545454	-39.0	-0.22551020408163266	221.0	1.5228924593177188E12	1.522892459325E12	2996.09375	32640.0	0.0	0.0	
-0.7633587786259541	-50.0	0.7633587786259541	50.0	1.0076335877862594	-66.0	0.5301204819277109	1286.0	9.168674698795181	2003.0	0.10843373493975904	2038.0	-0.4390909090909091	483.0	-0.03090909090909091	-34.0	-0.22244897959183677	218.0	1.522892459321625E12	1.522892459326E12	3000.0	32768.0	0.0	0.0	
-0.6259541984732824	-53.0	0.8091603053435115	41.0	1.114503816793893	-73.0	0.5180722891566265	1283.0	9.204819277108435	2004.0	0.0963855421686747	2039.0	-0.4390909090909091	483.0	-0.02181818181818182	-24.0	-0.22244897959183677	218.0	1.5228924593255313E12	1.522892459336E12	3003.90625	32896.0	0.0	0.0	
-0.7786259541984732	-56.0	0.8549618320610687	51.0	1.0381679389312977	-68.0	0.49397590361445787	1286.0	9.168674698795181	2006.0	0.10843373493975904	2038.0	-0.4390909090909091	483.0	-0.016363636363636365	-18.0	-0.22448979591836737	220.0	1.5228924593294375E12	1.522892459337E12	3007.8125	33024.0	0.0	0.0	
-0.7480916030534351	-60.0	0.916030534351145	49.0	1.0229007633587786	-67.0	0.4819277108433735	1285.0	9.180722891566266	2007.0	0.13253012048192772	2036.0	-0.4390909090909091	483.0	-0.016363636363636365	-18.0	-0.22448979591836737	220.0	1.5228924593333438E12	1.522892459338E12	3011.71875	33152.0	0.0	0.0	
-0.5190839694656488	-36.0	0.549618320610687	34.0	1.0076335877862594	-66.0	0.46987951807228917	1285.0	9.180722891566266	2008.0	0.1566265060240964	2034.0	-0.4390909090909091	483.0	-0.023636363636363636	-26.0	-0.22346938775510206	219.0	1.52289245933725E12	1.522892459374E12	3015.625	33280.0	0.0	0.0	
-0.6717557251908397	-56.0	0.8549618320610687	44.0	1.099236641221374	-72.0	0.45783132530120485	1284.0	9.19277108433735	2009.0	0.16867469879518074	2033.0	-0.43727272727272726	481.0	-0.019090909090909092	-21.0	-0.22551020408163266	221.0	1.5228924593411563E12	1.522892459375E12	3019.53125	33408.0	0.0	0.0	
-0.6717557251908397	-56.0	0.8549618320610687	44.0	1.0687022900763359	-70.0	0.44578313253012053	1285.0	9.180722891566266	2010.0	0.1566265060240964	2034.0	-0.4390909090909091	483.0	-0.034545454545454546	-38.0	-0.22551020408163266	221.0	1.5228924593450625E12	1.522892459375E12	3023.4375	33536.0	0.0	0.0	
-0.5343511450381679	-46.0	0.7022900763358778	35.0	0.9618320610687022	-63.0	0.45783132530120485	1285.0	9.180722891566266	2009.0	0.14457831325301207	2035.0	-0.4354545454545454	479.0	-0.02727272727272727	-30.0	-0.22448979591836737	220.0	1.5228924593489688E12	1.522892459377E12	3027.34375	33664.0	0.0	0.0	
-0.4427480916030534	-55.0	0.8396946564885496	29.0	1.2213740458015268	-80.0	0.43373493975903615	1285.0	9.180722891566266	2011.0	0.1566265060240964	2034.0	-0.43727272727272726	481.0	-0.01818181818181818	-20.0	-0.22448979591836737	220.0	1.522892459352875E12	1.522892459378E12	3031.25	33792.0	0.0	0.0	
-0.41221374045801523	-40.0	0.6106870229007634	27.0	1.1603053435114503	-76.0	0.44578313253012053	1287.0	9.156626506024097	2010.0	0.14457831325301207	2035.0	-0.4409090909090909	485.0	-0.035454545454545454	-39.0	-0.22448979591836737	220.0	1.5228924593567813E12	1.522892459379E12	3035.15625	33920.0	0.0	0.0	
-0.47328244274809156	-54.0	0.8244274809160305	31.0	1.129770992366412	-74.0	0.45783132530120485	1284.0	9.19277108433735	2009.0	0.1566265060240964	2034.0	-0.4409090909090909	485.0	-0.035454545454545454	-39.0	-0.22448979591836737	220.0	1.5228924593606875E12	1.522892459382E12	3039.0625	34048.0	0.0	0.0	
-0.4580152671755725	-33.0	0.5038167938931297	30.0	1.0687022900763359	-70.0	0.45783132530120485	1285.0	9.180722891566266	2009.0	0.16867469879518074	2033.0	-0.43727272727272726	481.0	-0.035454545454545454	-39.0	-0.2295918367346939	225.0	1.5228924593645938E12	1.522892459382E12	3042.96875	34176.0	0.0	0.0	
-0.5801526717557252	-40.0	0.6106870229007634	38.0	1.0534351145038168	-69.0	0.42168674698795183	1286.0	9.168674698795181	2012.0	0.18072289156626506	2032.0	-0.4409090909090909	485.0	-0.022727272727272728	-25.0	-0.22244897959183677	218.0	1.5228924593685E12	1.522892459383E12	3046.875	34304.0	0.0	0.0	
-0.3969465648854962	-47.0	0.7175572519083969	26.0	1.083969465648855	-71.0	0.3734939759036145	1286.0	9.168674698795181	2016.0	0.20481927710843376	2030.0	-0.4390909090909091	483.0	-0.035454545454545454	-39.0	-0.22346938775510206	219.0	1.5228924593724063E12	1.522892459392E12	3050.78125	34432.0	0.0	0.0	
-0.2748091603053435	-54.0	0.8244274809160305	18.0	1.2213740458015268	-80.0	0.3734939759036145	1286.0	9.168674698795181	2016.0	0.20481927710843376	2030.0	-0.4390909090909091	483.0	-0.035454545454545454	-39.0	-0.2295918367346939	225.0	1.5228924593763125E12	1.522892459393E12	3054.6875	34560.0	0.0	0.0	
-0.3511450381679389	-44.0	0.6717557251908397	23.0	1.2061068702290076	-79.0	0.42168674698795183	1287.0	9.156626506024097	2012.0	0.1927710843373494	2031.0	-0.44	484.0	-0.023636363636363636	-26.0	-0.22244897959183677	218.0	1.5228924593802188E12	1.522892459394E12	3058.59375	34688.0	0.0	0.0	
-0.21374045801526717	-33.0	0.5038167938931297	14.0	1.297709923664122	-85.0	0.4096385542168675	1286.0	9.168674698795181	2013.0	0.1566265060240964	2034.0	-0.44	484.0	-0.034545454545454546	-38.0	-0.22551020408163266	221.0	1.522892459384125E12	1.522892459395E12	3062.5	34816.0	0.0	0.0	
-0.24427480916030533	-36.0	0.549618320610687	16.0	1.3740458015267174	-90.0	0.4819277108433735	1286.0	9.168674698795181	2007.0	0.13253012048192772	2036.0	-0.44	484.0	-0.034545454545454546	-38.0	-0.22551020408163266	221.0	1.5228924593880313E12	1.522892459396E12	3066.40625	34944.0	0.0	0.0	
-0.41221374045801523	-22.0	0.33587786259541985	27.0	1.3740458015267174	-90.0	0.4819277108433735	1285.0	9.180722891566266	2007.0	0.12048192771084337	2037.0	-0.43454545454545457	478.0	-0.028181818181818183	-31.0	-0.21938775510204084	215.0	1.5228924593919375E12	1.522892459397E12	3070.3125	35072.0	0.0	0.0	
-0.21374045801526717	-39.0	0.5954198473282443	14.0	1.297709923664122	-85.0	0.46987951807228917	1284.0	9.19277108433735	2008.0	0.14457831325301207	2035.0	-0.4318181818181818	475.0	-0.03363636363636364	-37.0	-0.22346938775510206	219.0	1.5228924593958438E12	1.522892459409E12	3074.21875	35200.0	0.0	0.0	
-0.030534351145038167	-33.0	0.5038167938931297	2.0	1.2061068702290076	-79.0	0.44578313253012053	1285.0	9.180722891566266	2010.0	0.14457831325301207	2035.0	-0.44	484.0	-0.03363636363636364	-37.0	-0.22551020408163266	221.0	1.52289245939975E12	1.52289245941E12	3078.125	35328.0	0.0	0.0	
-0.12213740458015267	-40.0	0.6106870229007634	8.0	1.3129770992366412	-86.0	0.42168674698795183	1285.0	9.180722891566266	2012.0	0.13253012048192772	2036.0	-0.43727272727272726	481.0	-0.028181818181818183	-31.0	-0.22040816326530616	216.0	1.5228924594036563E12	1.522892459411E12	3082.03125	35456.0	0.0	0.0	
-0.21374045801526717	-18.0	0.2748091603053435	14.0	1.297709923664122	-85.0	0.39759036144578314	1286.0	9.168674698795181	2014.0	0.13253012048192772	2036.0	-0.4309090909090909	474.0	-0.035454545454545454	-39.0	-0.22346938775510206	219.0	1.5228924594075625E12	1.522892459419E12	3085.9375	35584.0	0.0	0.0	
-0.1984732824427481	-30.0	0.4580152671755725	13.0	1.282442748091603	-84.0	0.4096385542168675	1286.0	9.168674698795181	2013.0	0.13253012048192772	2036.0	-0.4309090909090909	474.0	-0.02727272727272727	-30.0	-0.22755102040816327	223.0	1.5228924594114688E12	1.52289245942E12	3089.84375	35712.0	0.0	0.0	
-0.04580152671755725	-24.0	0.366412213740458	3.0	1.4198473282442747	-93.0	0.43373493975903615	1286.0	9.168674698795181	2011.0	0.10843373493975904	2038.0	-0.4390909090909091	483.0	-0.02727272727272727	-30.0	-0.22755102040816327	223.0	1.522892459415375E12	1.522892459421E12	3093.75	35840.0	0.0	0.0	
0.015267175572519083	-25.0	0.38167938931297707	-1.0	1.4809160305343512	-97.0	0.44578313253012053	1284.0	9.19277108433735	2010.0	0.08433734939759037	2040.0	-0.43727272727272726	481.0	-0.034545454545454546	-38.0	-0.22346938775510206	219.0	1.5228924594192813E12	1.522892459429E12	3097.65625	35968.0	0.0	0.0	
-0.0916030534351145	-25.0	0.38167938931297707	6.0	1.3893129770992365	-91.0	0.43373493975903615	1285.0	9.180722891566266	2011.0	0.07228915662650603	2041.0	-0.4290909090909091	472.0	-0.008181818181818182	-9.0	-0.22755102040816327	223.0	1.5228924594231875E12	1.52289245943E12	3101.5625	36096.0	0.0	0.0	
0.15267175572519084	-31.0	0.47328244274809156	-10.0	1.297709923664122	-85.0	0.42168674698795183	1283.0	9.204819277108435	2012.0	0.04819277108433735	2043.0	-0.43454545454545457	478.0	-0.02727272727272727	-30.0	-0.22653061224489798	222.0	1.5228924594270938E12	1.522892459431E12	3105.46875	36224.0	0.0	0.0	
0.22900763358778625	-30.0	0.4580152671755725	-15.0	1.3282442748091603	-87.0	0.44578313253012053	1285.0	9.180722891566266	2010.0	0.060240963855421686	2042.0	-0.43363636363636365	477.0	-0.023636363636363636	-26.0	-0.22448979591836737	220.0	1.522892459431E12	1.522892459443E12	3109.375	36352.0	0.0	0.0	
-0.22900763358778625	-17.0	0.2595419847328244	15.0	1.3129770992366412	-86.0	0.45783132530120485	1286.0	9.168674698795181	2009.0	0.07228915662650603	2041.0	-0.4409090909090909	485.0	-0.02909090909090909	-32.0	-0.22142857142857145	217.0	1.5228924594349063E12	1.522892459444E12	3113.28125	36480.0	0.0	0.0	
0.015267175572519083	-33.0	0.5038167938931297	-1.0	1.3740458015267174	-90.0	0.44578313253012053	1286.0	9.168674698795181	2010.0	0.07228915662650603	2041.0	-0.4409090909090909	485.0	-0.02909090909090909	-32.0	-0.22142857142857145	217.0	1.5228924594388125E12	1.522892459444E12	3117.1875	36608.0	0.0	0.0	
-0.10687022900763359	-31.0	0.47328244274809156	7.0	1.4961832061068703	-98.0	0.43373493975903615	1283.0	9.204819277108435	2011.0	0.03614457831325302	2044.0	-0.43454545454545457	478.0	-0.034545454545454546	-38.0	-0.2285714285714286	224.0	1.5228924594427188E12	1.522892459459E12	3121.09375	36736.0	0.0	0.0	
-0.183206106870229	-32.0	0.48854961832061067	12.0	1.3129770992366412	-86.0	0.44578313253012053	1283.0	9.204819277108435	2010.0	0.03614457831325302	2044.0	-0.43363636363636365	477.0	-0.022727272727272728	-25.0	-0.22551020408163266	221.0	1.522892459446625E12	1.52289245946E12	3125.0	36864.0	0.0	0.0	
0.030534351145038167	-12.0	0.183206106870229	-2.0	1.5725190839694656	-103.0	0.42168674698795183	1285.0	9.180722891566266	2012.0	0.024096385542168676	2045.0	-0.4390909090909091	483.0	-0.028181818181818183	-31.0	-0.22040816326530616	216.0	1.5228924594505313E12	1.522892459462E12	3128.90625	36992.0	0.0	0.0	
0.15267175572519084	-39.0	0.5954198473282443	-10.0	1.2061068702290076	-79.0	0.42168674698795183	1285.0	9.180722891566266	2012.0	0.0	2047.0	-0.4390909090909091	483.0	-0.034545454545454546	-38.0	-0.2295918367346939	225.0	1.5228924594544375E12	1.522892459476E12	3132.8125	37120.0	0.0	0.0	
-0.04580152671755725	-36.0	0.549618320610687	3.0	1.4809160305343512	-97.0	0.42168674698795183	1284.0	9.19277108433735	2012.0	0.0	2047.0	-0.4354545454545454	479.0	-0.025454545454545455	-28.0	-0.22142857142857145	217.0	1.5228924594583438E12	1.522892459477E12	3136.71875	37248.0	0.0	0.0	
0.07633587786259542	-23.0	0.3511450381679389	-5.0	1.4809160305343512	-97.0	0.43373493975903615	1285.0	9.180722891566266	2011.0	0.0	2047.0	-0.42818181818181816	471.0	-0.02090909090909091	-23.0	-0.21938775510204084	215.0	1.52289245946225E12	1.522892459479E12	3140.625	37376.0	0.0	0.0	
-0.0916030534351145	-23.0	0.3511450381679389	6.0	1.5267175572519083	-100.0	0.43373493975903615	1285.0	9.180722891566266	2011.0	0.0	2047.0	-0.42818181818181816	471.0	-0.02090909090909091	-23.0	-0.21938775510204084	215.0	1.5228924594661563E12	1.52289245948E12	3144.53125	37504.0	0.0	0.0	
-0.183206106870229	-33.0	0.5038167938931297	12.0	1.648854961832061	-108.0	0.39759036144578314	1285.0	9.180722891566266	2014.0	0.0	2047.0	-0.44	484.0	-0.035454545454545454	-39.0	-0.22448979591836737	220.0	1.5228924594700625E12	1.522892459481E12	3148.4375	37632.0	0.0	0.0	
0.015267175572519083	-32.0	0.48854961832061067	-1.0	1.4961832061068703	-98.0	0.3855421686746988	1286.0	9.168674698795181	2015.0	-0.012048192771084338	2048.0	-0.42454545454545456	467.0	-0.02909090909090909	-32.0	-0.22448979591836737	220.0	1.5228924594739688E12	1.522892459483E12	3152.34375	37760.0	0.0	0.0	
-0.0916030534351145	-16.0	0.24427480916030533	6.0	1.7557251908396947	-115.0	0.3855421686746988	1285.0	9.180722891566266	2015.0	-0.012048192771084338	2048.0	-0.43	473.0	-0.028181818181818183	-31.0	-0.22142857142857145	217.0	1.522892459477875E12	1.522892459487E12	3156.25	37888.0	0.0	0.0	
0.015267175572519083	-29.0	0.4427480916030534	-1.0	1.5725190839694656	-103.0	0.3734939759036145	1284.0	9.19277108433735	2016.0	-0.03614457831325302	2050.0	-0.4381818181818182	482.0	-0.035454545454545454	-39.0	-0.2285714285714286	224.0	1.5228924594817813E12	1.522892459489E12	3160.15625	38016.0	0.0	0.0	
0.061068702290076333	-35.0	0.5343511450381679	-4.0	1.7404580152671756	-114.0	0.3734939759036145	1285.0	9.180722891566266	2016.0	-0.012048192771084338	2048.0	-0.43363636363636365	477.0	-0.025454545454545455	-28.0	-0.22551020408163266	221.0	1.5228924594856875E12	1.522892459491E12	3164.0625	38144.0	0.0	0.0	
-0.04580152671755725	-31.0	0.47328244274809156	3.0	1.5419847328244274	-101.0	0.3734939759036145	1286.0	9.168674698795181	2016.0	-0.03614457831325302	2050.0	-0.4290909090909091	472.0	-0.016363636363636365	-18.0	-0.2285714285714286	224.0	1.5228924594895938E12	1.522892459525E12	3167.96875	38272.0	0.0	0.0	
-0.21374045801526717	-37.0	0.564885496183206	14.0	1.6793893129770991	-110.0	0.3855421686746988	1284.0	9.19277108433735	2015.0	-0.024096385542168676	2049.0	-0.4290909090909091	472.0	-0.016363636363636365	-18.0	-0.2285714285714286	224.0	1.5228924594935E12	1.522892459527E12	3171.875	38400.0	0.0	0.0	
-0.10687022900763359	-42.0	0.6412213740458015	7.0	1.6946564885496183	-111.0	0.3855421686746988	1285.0	9.180722891566266	2015.0	-0.03614457831325302	2050.0	-0.43636363636363634	480.0	-0.026363636363636363	-29.0	-0.22653061224489798	222.0	1.5228924594974063E12	1.522892459528E12	3175.78125	38528.0	0.0	0.0	
-0.015267175572519083	-24.0	0.366412213740458	1.0	1.618320610687023	-106.0	0.3855421686746988	1285.0	9.180722891566266	2015.0	-0.04819277108433735	2051.0	-0.43272727272727274	476.0	-0.02727272727272727	-30.0	-0.22653061224489798	222.0	1.5228924595013125E12	1.52289245953E12	3179.6875	38656.0	0.0	0.0	
-0.1984732824427481	-35.0	0.5343511450381679	13.0	1.5267175572519083	-100.0	0.3855421686746988	1285.0	9.180722891566266	2015.0	-0.03614457831325302	2050.0	-0.43636363636363634	480.0	-0.034545454545454546	-38.0	-0.22142857142857145	217.0	1.5228924595052188E12	1.522892459532E12	3183.59375	38784.0	0.0	0.0	
-0.13740458015267176	-33.0	0.5038167938931297	9.0	1.816793893129771	-119.0	0.39759036144578314	1285.0	9.180722891566266	2014.0	-0.024096385542168676	2049.0	-0.43363636363636365	477.0	-0.03	-33.0	-0.22755102040816327	223.0	1.522892459509125E12	1.522892459533E12	3187.5	38912.0	0.0	0.0	
-0.22900763358778625	-31.0	0.47328244274809156	15.0	1.7251908396946565	-113.0	0.39759036144578314	1286.0	9.168674698795181	2014.0	-0.012048192771084338	2048.0	-0.43454545454545457	478.0	-0.023636363636363636	-26.0	-0.22653061224489798	222.0	1.5228924595130313E12	1.522892459535E12	3191.40625	39040.0	0.0	0.0	
-0.183206106870229	-22.0	0.33587786259541985	12.0	1.66412213740458	-109.0	0.39759036144578314	1285.0	9.180722891566266	2014.0	-0.012048192771084338	2048.0	-0.4381818181818182	482.0	-0.034545454545454546	-38.0	-0.22448979591836737	220.0	1.5228924595169375E12	1.522892459536E12	3195.3125	39168.0	0.0	0.0	
-0.061068702290076333	-42.0	0.6412213740458015	4.0	1.465648854961832	-96.0	0.39759036144578314	1284.0	9.19277108433735	2014.0	-0.012048192771084338	2048.0	-0.4381818181818182	482.0	-0.034545454545454546	-38.0	-0.22448979591836737	220.0	1.5228924595208438E12	1.522892459538E12	3199.21875	39296.0	0.0	0.0	
-0.41221374045801523	-40.0	0.6106870229007634	27.0	1.6335877862595418	-107.0	0.3614457831325301	1285.0	9.180722891566266	2017.0	-0.012048192771084338	2048.0	-0.43272727272727274	476.0	-0.028181818181818183	-31.0	-0.22551020408163266	221.0	1.52289245952475E12	1.522892459539E12	3203.125	39424.0	0.0	0.0	
-0.16793893129770993	-25.0	0.38167938931297707	11.0	1.8778625954198473	-123.0	0.3855421686746988	1286.0	9.168674698795181	2015.0	-0.024096385542168676	2049.0	-0.4354545454545454	479.0	-0.026363636363636363	-29.0	-0.22244897959183677	218.0	1.5228924595286563E12	1.522892459541E12	3207.03125	39552.0	0.0	0.0	
-0.030534351145038167	-38.0	0.5801526717557252	2.0	1.9083969465648853	-125.0	0.42168674698795183	1285.0	9.180722891566266	2012.0	-0.012048192771084338	2048.0	-0.4381818181818182	482.0	-0.035454545454545454	-39.0	-0.22551020408163266	221.0	1.5228924595325625E12	1.522892459544E12	3210.9375	39680.0	0.0	0.0	
-0.3053435114503817	-27.0	0.41221374045801523	20.0	1.7709923664122136	-116.0	0.42168674698795183	1284.0	9.19277108433735	2012.0	-0.024096385542168676	2049.0	-0.4318181818181818	475.0	-0.03363636363636364	-37.0	-0.22448979591836737	220.0	1.5228924595364688E12	1.522892459549E12	3214.84375	39808.0	0.0	0.0	
-0.07633587786259542	-46.0	0.7022900763358778	5.0	1.9541984732824427	-128.0	0.43373493975903615	1284.0	9.19277108433735	2011.0	-0.012048192771084338	2048.0	-0.42818181818181816	471.0	-0.01818181818181818	-20.0	-0.22040816326530616	216.0	1.522892459540375E12	1.52289245955E12	3218.75	39936.0	0.0	0.0	
-0.21374045801526717	-28.0	0.42748091603053434	14.0	1.8473282442748091	-121.0	0.44578313253012053	1284.0	9.19277108433735	2010.0	-0.012048192771084338	2048.0	-0.4381818181818182	482.0	-0.031818181818181815	-35.0	-0.22346938775510206	219.0	1.5228924595442813E12	1.522892459551E12	3222.65625	40064.0	0.0	0.0	
-0.030534351145038167	-42.0	0.6412213740458015	2.0	1.83206106870229	-120.0	0.44578313253012053	1285.0	9.180722891566266	2010.0	-0.012048192771084338	2048.0	-0.4381818181818182	482.0	-0.031818181818181815	-35.0	-0.22346938775510206	219.0	1.5228924595481875E12	1.522892459557E12	3226.5625	40192.0	0.0	0.0	
-0.16793893129770993	-25.0	0.38167938931297707	11.0	1.66412213740458	-109.0	0.42168674698795183	1284.0	9.19277108433735	2012.0	-0.024096385542168676	2049.0	-0.4290909090909091	472.0	-0.024545454545454544	-27.0	-0.22244897959183677	218.0	1.5228924595520938E12	1.522892459558E12	3230.46875	40320.0	0.0	0.0	
-0.22900763358778625	-34.0	0.5190839694656488	15.0	1.7862595419847327	-117.0	0.4096385542168675	1285.0	9.180722891566266	2013.0	-0.024096385542168676	2049.0	-0.43636363636363634	480.0	-0.02	-22.0	-0.22346938775510206	219.0	1.522892459556E12	1.522892459559E12	3234.375	40448.0	0.0	0.0	
-0.32061068702290074	-29.0	0.4427480916030534	21.0	2.0	-131.0	0.4096385542168675	1284.0	9.19277108433735	2013.0	-0.024096385542168676	2049.0	-0.42454545454545456	467.0	-0.016363636363636365	-18.0	-0.22448979591836737	220.0	1.5228924595599063E12	1.522892459563E12	3238.28125	40576.0	0.0	0.0	
-0.16793893129770993	-25.0	0.38167938931297707	11.0	1.7251908396946565	-113.0	0.39759036144578314	1286.0	9.168674698795181	2014.0	-0.03614457831325302	2050.0	-0.43272727272727274	476.0	-0.03	-33.0	-0.22551020408163266	221.0	1.5228924595638125E12	1.522892459575E12	3242.1875	40704.0	0.0	0.0	
-0.24427480916030533	-23.0	0.3511450381679389	16.0	1.9389312977099236	-127.0	0.43373493975903615	1285.0	9.180722891566266	2011.0	-0.012048192771084338	2048.0	-0.4390909090909091	483.0	-0.026363636363636363	-29.0	-0.21836734693877552	214.0	1.5228924595677188E12	1.522892459576E12	3246.09375	40832.0	0.0	0.0	
-0.12213740458015267	-39.0	0.5954198473282443	8.0	1.984732824427481	-130.0	0.43373493975903615	1287.0	9.156626506024097	2011.0	-0.03614457831325302	2050.0	-0.44	484.0	-0.03	-33.0	-0.22244897959183677	218.0	1.522892459571625E12	1.522892459577E12	3250.0	40960.0	0.0	0.0	
-0.15267175572519084	-33.0	0.5038167938931297	10.0	1.8778625954198473	-123.0	0.45783132530120485	1286.0	9.168674698795181	2009.0	-0.04819277108433735	2051.0	-0.44	484.0	-0.03	-33.0	-0.22244897959183677	218.0	1.5228924595755313E12	1.52289245959E12	3253.90625	41088.0	0.0	0.0	
-0.183206106870229	-25.0	0.38167938931297707	12.0	1.7251908396946565	-113.0	0.4819277108433735	1285.0	9.180722891566266	2007.0	-0.060240963855421686	2052.0	-0.43272727272727274	476.0	-0.026363636363636363	-29.0	-0.21836734693877552	214.0	1.5228924595794375E12	1.522892459592E12	3257.8125	41216.0	0.0	0.0	
-0.15267175572519084	-35.0	0.5343511450381679	10.0	1.816793893129771	-119.0	0.4819277108433735	1286.0	9.168674698795181	2007.0	-0.060240963855421686	2052.0	-0.43727272727272726	481.0	-0.024545454545454544	-27.0	-0.21938775510204084	215.0	1.5228924595833438E12	1.522892459593E12	3261.71875	41344.0	0.0	0.0	
-0.32061068702290074	-30.0	0.4580152671755725	21.0	2.0	-131.0	0.4819277108433735	1284.0	9.19277108433735	2007.0	-0.07228915662650603	2053.0	-0.4354545454545454	479.0	-0.035454545454545454	-39.0	-0.22551020408163266	221.0	1.52289245958725E12	1.522892459596E12	3265.625	41472.0	0.0	0.0	
-0.3511450381679389	-39.0	0.5954198473282443	23.0	1.9236641221374045	-126.0	0.5060240963855422	1284.0	9.19277108433735	2005.0	-0.08433734939759037	2054.0	-0.43454545454545457	478.0	-0.03272727272727273	-36.0	-0.22244897959183677	218.0	1.5228924595911563E12	1.522892459596E12	3269.53125	41600.0	0.0	0.0	
-0.5190839694656488	-29.0	0.4427480916030534	34.0	1.984732824427481	-130.0	0.5180722891566265	1285.0	9.180722891566266	2004.0	-0.08433734939759037	2054.0	-0.4390909090909091	483.0	-0.024545454545454544	-27.0	-0.21836734693877552	214.0	1.5228924595950625E12	1.522892459596E12	3273.4375	41728.0	0.0	0.0	
-0.3511450381679389	-38.0	0.5801526717557252	23.0	1.9389312977099236	-127.0	0.5421686746987953	1285.0	9.180722891566266	2002.0	-0.0963855421686747	2055.0	-0.4390909090909091	483.0	-0.026363636363636363	-29.0	-0.21836734693877552	214.0	1.5228924595989688E12	1.522892459609E12	3277.34375	41856.0	0.0	0.0	
-0.21374045801526717	-25.0	0.38167938931297707	14.0	2.015267175572519	-132.0	0.5542168674698795	1284.0	9.19277108433735	2001.0	-0.0963855421686747	2055.0	-0.4390909090909091	483.0	-0.026363636363636363	-29.0	-0.22551020408163266	221.0	1.522892459602875E12	1.52289245961E12	3281.25	41984.0	0.0	0.0	
-0.32061068702290074	-31.0	0.47328244274809156	21.0	1.8931297709923662	-124.0	0.5542168674698795	1284.0	9.19277108433735	2001.0	-0.08433734939759037	2054.0	-0.43636363636363634	480.0	-0.028181818181818183	-31.0	-0.22551020408163266	221.0	1.5228924596067813E12	1.522892459612E12	3285.15625	42112.0	0.0	0.0	
-0.42748091603053434	-37.0	0.564885496183206	28.0	1.816793893129771	-119.0	0.5421686746987953	1286.0	9.168674698795181	2002.0	-0.10843373493975904	2056.0	-0.4381818181818182	482.0	-0.023636363636363636	-26.0	-0.22551020408163266	221.0	1.5228924596106875E12	1.522892459624E12	3289.0625	42240.0	0.0	0.0	
-0.549618320610687	-42.0	0.6412213740458015	36.0	1.6946564885496183	-111.0	0.5180722891566265	1285.0	9.180722891566266	2004.0	-0.08433734939759037	2054.0	-0.43363636363636365	477.0	-0.03090909090909091	-34.0	-0.22551020408163266	221.0	1.5228924596145938E12	1.522892459625E12	3292.96875	42368.0	0.0	0.0	
-0.13740458015267176	-36.0	0.549618320610687	9.0	1.7862595419847327	-117.0	0.5301204819277109	1286.0	9.168674698795181	2003.0	-0.10843373493975904	2056.0	-0.4309090909090909	474.0	-0.02	-22.0	-0.22244897959183677	218.0	1.5228924596185E12	1.522892459626E12	3296.875	42496.0	0.0	0.0	
-0.4580152671755725	-27.0	0.41221374045801523	30.0	1.984732824427481	-130.0	0.5301204819277109	1286.0	9.168674698795181	2003.0	-0.0963855421686747	2055.0	-0.4290909090909091	472.0	-0.03	-33.0	-0.22142857142857145	217.0	1.5228924596224063E12	1.522892459641E12	3300.78125	42624.0	0.0	0.0	
-0.38167938931297707	-44.0	0.6717557251908397	25.0	1.8625954198473282	-122.0	0.5662650602409639	1284.0	9.19277108433735	2000.0	-0.08433734939759037	2054.0	-0.4290909090909091	472.0	-0.03	-33.0	-0.22142857142857145	217.0	1.5228924596263125E12	1.522892459642E12	3304.6875	42752.0	0.0	0.0	
-0.48854961832061067	-46.0	0.7022900763358778	32.0	1.8625954198473282	-122.0	0.5783132530120483	1284.0	9.19277108433735	1999.0	-0.08433734939759037	2054.0	-0.43727272727272726	481.0	-0.024545454545454544	-27.0	-0.22346938775510206	219.0	1.5228924596302188E12	1.522892459643E12	3308.59375	42880.0	0.0	0.0	
-0.41221374045801523	-43.0	0.6564885496183206	27.0	1.7404580152671756	-114.0	0.5783132530120483	1286.0	9.168674698795181	1999.0	-0.0963855421686747	2055.0	-0.4290909090909091	472.0	-0.024545454545454544	-27.0	-0.22244897959183677	218.0	1.522892459634125E12	1.522892459677E12	3312.5	43008.0	0.0	0.0	
-0.549618320610687	-54.0	0.8244274809160305	36.0	1.83206106870229	-120.0	0.5421686746987953	1285.0	9.180722891566266	2002.0	-0.08433734939759037	2054.0	-0.4290909090909091	472.0	-0.00909090909090909	-10.0	-0.21938775510204084	215.0	1.5228924596380313E12	1.522892459677E12	3316.40625	43136.0	0.0	0.0	
-0.42748091603053434	-41.0	0.6259541984732824	28.0	1.6946564885496183	-111.0	0.5421686746987953	1285.0	9.180722891566266	2002.0	-0.0963855421686747	2055.0	-0.43272727272727274	476.0	-0.016363636363636365	-18.0	-0.2163265306122449	212.0	1.5228924596419375E12	1.522892459677E12	3320.3125	43264.0	0.0	0.0	
-0.47328244274809156	-43.0	0.6564885496183206	31.0	1.8778625954198473	-123.0	0.5542168674698795	1285.0	9.180722891566266	2001.0	-0.10843373493975904	2056.0	-0.4318181818181818	475.0	-0.024545454545454544	-27.0	-0.22244897959183677	218.0	1.5228924596458438E12	1.522892459679E12	3324.21875	43392.0	0.0	0.0	
-0.38167938931297707	-41.0	0.6259541984732824	25.0	1.7404580152671756	-114.0	0.5542168674698795	1286.0	9.168674698795181	2001.0	-0.08433734939759037	2054.0	-0.43727272727272726	481.0	-0.02909090909090909	-32.0	-0.21836734693877552	214.0	1.52289245964975E12	1.522892459679E12	3328.125	43520.0	0.0	0.0	
-0.564885496183206	-25.0	0.38167938931297707	37.0	1.7557251908396947	-115.0	0.5903614457831325	1286.0	9.168674698795181	1998.0	-0.08433734939759037	2054.0	-0.43727272727272726	481.0	-0.02909090909090909	-32.0	-0.21836734693877552	214.0	1.5228924596536563E12	1.52289245968E12	3332.03125	43648.0	0.0	0.0	
-0.549618320610687	-40.0	0.6106870229007634	36.0	1.5267175572519083	-100.0	0.5783132530120483	1287.0	9.156626506024097	1999.0	-0.08433734939759037	2054.0	-0.43727272727272726	481.0	-0.015454545454545455	-17.0	-0.21530612244897962	211.0	1.5228924596575625E12	1.522892459682E12	3335.9375	43776.0	0.0	0.0	
-0.549618320610687	-31.0	0.47328244274809156	36.0	1.6793893129770991	-110.0	0.5542168674698795	1286.0	9.168674698795181	2001.0	-0.0963855421686747	2055.0	-0.43363636363636365	477.0	-0.024545454545454544	-27.0	-0.22653061224489798	222.0	1.5228924596614688E12	1.522892459687E12	3339.84375	43904.0	0.0	0.0	
-0.6412213740458015	-31.0	0.47328244274809156	42.0	1.7862595419847327	-117.0	0.5542168674698795	1285.0	9.180722891566266	2001.0	-0.10843373493975904	2056.0	-0.43636363636363634	480.0	-0.031818181818181815	-35.0	-0.21734693877551023	213.0	1.522892459665375E12	1.522892459687E12	3343.75	44032.0	0.0	0.0	
-0.6870229007633587	-39.0	0.5954198473282443	45.0	1.7099236641221374	-112.0	0.5662650602409639	1287.0	9.156626506024097	2000.0	-0.0963855421686747	2055.0	-0.44	484.0	-0.034545454545454546	-38.0	-0.22448979591836737	220.0	1.5228924596692813E12	1.522892459687E12	3347.65625	44160.0	0.0	0.0	
-0.6717557251908397	-49.0	0.7480916030534351	44.0	1.7862595419847327	-117.0	0.5783132530120483	1285.0	9.180722891566266	1999.0	-0.08433734939759037	2054.0	-0.4354545454545454	479.0	-0.024545454545454544	-27.0	-0.22448979591836737	220.0	1.5228924596731875E12	1.522892459687E12	3351.5625	44288.0	0.0	0.0	
-0.366412213740458	-48.0	0.732824427480916	24.0	1.7404580152671756	-114.0	0.5903614457831325	1286.0	9.168674698795181	1998.0	-0.07228915662650603	2053.0	-0.4390909090909091	483.0	-0.03272727272727273	-36.0	-0.22142857142857145	217.0	1.5228924596770938E12	1.522892459691E12	3355.46875	44416.0	0.0	0.0	
-0.5343511450381679	-41.0	0.6259541984732824	35.0	1.648854961832061	-108.0	0.5783132530120483	1285.0	9.180722891566266	1999.0	-0.0963855421686747	2055.0	-0.4390909090909091	483.0	-0.03272727272727273	-36.0	-0.22142857142857145	217.0	1.522892459681E12	1.522892459699E12	3359.375	44544.0	0.0	0.0	
-0.5343511450381679	-36.0	0.549618320610687	35.0	1.6793893129770991	-110.0	0.5662650602409639	1286.0	9.168674698795181	2000.0	-0.10843373493975904	2056.0	-0.4381818181818182	482.0	-0.031818181818181815	-35.0	-0.22653061224489798	222.0	1.5228924596849063E12	1.5228924597E12	3363.28125	44672.0	0.0	0.0	
-0.32061068702290074	-35.0	0.5343511450381679	21.0	1.5419847328244274	-101.0	0.5783132530120483	1285.0	9.180722891566266	1999.0	-0.12048192771084337	2057.0	-0.4354545454545454	479.0	-0.02727272727272727	-30.0	-0.22448979591836737	220.0	1.5228924596888125E12	1.522892459702E12	3367.1875	44800.0	0.0	0.0	
-0.7175572519083969	-39.0	0.5954198473282443	47.0	1.5419847328244274	-101.0	0.5903614457831325	1284.0	9.19277108433735	1998.0	-0.10843373493975904	2056.0	-0.43363636363636365	477.0	-0.015454545454545455	-17.0	-0.22346938775510206	219.0	1.5228924596927188E12	1.522892459703E12	3371.09375	44928.0	0.0	0.0	
-0.732824427480916	-39.0	0.5954198473282443	48.0	1.6335877862595418	-107.0	0.5903614457831325	1286.0	9.168674698795181	1998.0	-0.0963855421686747	2055.0	-0.43363636363636365	477.0	-0.03090909090909091	-34.0	-0.22346938775510206	219.0	1.522892459696625E12	1.522892459705E12	3375.0	45056.0	0.0	0.0	
-0.6870229007633587	-57.0	0.8702290076335878	45.0	1.5114503816793892	-99.0	0.5301204819277109	1284.0	9.19277108433735	2003.0	-0.10843373493975904	2056.0	-0.43454545454545457	478.0	-0.02727272727272727	-30.0	-0.22551020408163266	221.0	1.5228924597005313E12	1.522892459706E12	3378.90625	45184.0	0.0	0.0	
-0.8091603053435115	-39.0	0.5954198473282443	53.0	1.5877862595419847	-104.0	0.5301204819277109	1285.0	9.180722891566266	2003.0	-0.12048192771084337	2057.0	-0.43272727272727274	476.0	-0.015454545454545455	-17.0	-0.21836734693877552	214.0	1.5228924597044375E12	1.522892459715E12	3382.8125	45312.0	0.0	0.0	
-0.7480916030534351	-45.0	0.6870229007633587	49.0	1.5114503816793892	-99.0	0.5421686746987953	1286.0	9.168674698795181	2002.0	-0.0963855421686747	2055.0	-0.43272727272727274	476.0	-0.015454545454545455	-17.0	-0.21836734693877552	214.0	1.5228924597083438E12	1.522892459716E12	3386.71875	45440.0	0.0	0.0	
-0.916030534351145	-36.0	0.549618320610687	60.0	1.4961832061068703	-98.0	0.5542168674698795	1286.0	9.168674698795181	2001.0	-0.12048192771084337	2057.0	-0.43363636363636365	477.0	-0.02909090909090909	-32.0	-0.22142857142857145	217.0	1.52289245971225E12	1.522892459718E12	3390.625	45568.0	0.0	0.0	
-0.7480916030534351	-32.0	0.48854961832061067	49.0	1.66412213740458	-109.0	0.5662650602409639	1285.0	9.180722891566266	2000.0	-0.12048192771084337	2057.0	-0.43454545454545457	478.0	-0.02090909090909091	-23.0	-0.21938775510204084	215.0	1.5228924597161563E12	1.522892459726E12	3394.53125	45696.0	0.0	0.0	
-0.8549618320610687	-46.0	0.7022900763358778	56.0	1.618320610687023	-106.0	0.5783132530120483	1285.0	9.180722891566266	1999.0	-0.12048192771084337	2057.0	-0.43636363636363634	480.0	-0.03727272727272727	-41.0	-0.22244897959183677	218.0	1.5228924597200625E12	1.522892459727E12	3398.4375	45824.0	0.0	0.0	
-0.7480916030534351	-49.0	0.7480916030534351	49.0	1.5419847328244274	-101.0	0.5542168674698795	1283.0	9.204819277108435	2001.0	-0.10843373493975904	2056.0	-0.43272727272727274	476.0	-0.02727272727272727	-30.0	-0.22346938775510206	219.0	1.5228924597239688E12	1.52289245973E12	3402.34375	45952.0	0.0	0.0	
-0.732824427480916	-46.0	0.7022900763358778	48.0	1.4809160305343512	-97.0	0.5301204819277109	1283.0	9.204819277108435	2003.0	-0.10843373493975904	2056.0	-0.42818181818181816	471.0	-0.02181818181818182	-24.0	-0.22244897959183677	218.0	1.522892459727875E12	1.522892459745E12	3406.25	46080.0	0.0	0.0	
-0.9465648854961831	-40.0	0.6106870229007634	62.0	1.3587786259541985	-89.0	0.4819277108433735	1284.0	9.19277108433735	2007.0	-0.0963855421686747	2055.0	-0.43727272727272726	481.0	-0.034545454545454546	-38.0	-0.21938775510204084	215.0	1.5228924597317813E12	1.522892459746E12	3410.15625	46208.0	0.0	0.0	
-0.7175572519083969	-41.0	0.6259541984732824	47.0	1.4045801526717556	-92.0	0.45783132530120485	1284.0	9.19277108433735	2009.0	-0.10843373493975904	2056.0	-0.43727272727272726	481.0	-0.034545454545454546	-38.0	-0.21938775510204084	215.0	1.5228924597356875E12	1.522892459748E12	3414.0625	46336.0	0.0	0.0	
-0.916030534351145	-46.0	0.7022900763358778	60.0	1.3893129770992365	-91.0	0.45783132530120485	1285.0	9.180722891566266	2009.0	-0.10843373493975904	2056.0	-0.4318181818181818	475.0	-0.026363636363636363	-29.0	-0.22142857142857145	217.0	1.5228924597395938E12	1.522892459749E12	3417.96875	46464.0	0.0	0.0	
-1.0229007633587786	-44.0	0.6717557251908397	67.0	1.5877862595419847	-104.0	0.4819277108433735	1286.0	9.168674698795181	2007.0	-0.0963855421686747	2055.0	-0.4354545454545454	479.0	-0.01818181818181818	-20.0	-0.21938775510204084	215.0	1.5228924597435E12	1.52289245975E12	3421.875	46592.0	0.0	0.0	
-1.0534351145038168	-54.0	0.8244274809160305	69.0	1.4961832061068703	-98.0	0.4819277108433735	1284.0	9.19277108433735	2007.0	-0.0963855421686747	2055.0	-0.4381818181818182	482.0	-0.035454545454545454	-39.0	-0.22142857142857145	217.0	1.5228924597474063E12	1.522892459752E12	3425.78125	46720.0	0.0	0.0	
-1.0687022900763359	-51.0	0.7786259541984732	70.0	1.3282442748091603	-87.0	0.4819277108433735	1285.0	9.180722891566266	2007.0	-0.08433734939759037	2054.0	-0.4318181818181818	475.0	-0.031818181818181815	-35.0	-0.22244897959183677	218.0	1.5228924597513125E12	1.522892459765E12	3429.6875	46848.0	0.0	0.0	
-0.916030534351145	-48.0	0.732824427480916	60.0	1.4809160305343512	-97.0	0.46987951807228917	1285.0	9.180722891566266	2008.0	-0.04819277108433735	2051.0	-0.43727272727272726	481.0	-0.026363636363636363	-29.0	-0.21938775510204084	215.0	1.5228924597552188E12	1.522892459767E12	3433.59375	46976.0	0.0	0.0	
-0.916030534351145	-42.0	0.6412213740458015	60.0	1.5419847328244274	-101.0	0.46987951807228917	1286.0	9.168674698795181	2008.0	-0.03614457831325302	2050.0	-0.43727272727272726	481.0	-0.028181818181818183	-31.0	-0.22142857142857145	217.0	1.522892459759125E12	1.522892459769E12	3437.5	47104.0	0.0	0.0	
-0.9465648854961831	-46.0	0.7022900763358778	62.0	1.6793893129770991	-110.0	0.46987951807228917	1286.0	9.168674698795181	2008.0	-0.012048192771084338	2048.0	-0.43727272727272726	481.0	-0.028181818181818183	-31.0	-0.22142857142857145	217.0	1.5228924597630313E12	1.522892459782E12	3441.40625	47232.0	0.0	0.0	
-0.9312977099236641	-37.0	0.564885496183206	61.0	1.465648854961832	-96.0	0.4819277108433735	1284.0	9.19277108433735	2007.0	-0.024096385542168676	2049.0	-0.4318181818181818	475.0	-0.03090909090909091	-34.0	-0.22346938775510206	219.0	1.5228924597669375E12	1.522892459784E12	3445.3125	47360.0	0.0	0.0	
-1.0381679389312977	-45.0	0.6870229007633587	68.0	1.7709923664122136	-116.0	0.4819277108433735	1284.0	9.19277108433735	2007.0	-0.012048192771084338	2048.0	-0.43727272727272726	481.0	-0.024545454545454544	-27.0	-0.21734693877551023	213.0	1.5228924597708438E12	1.522892459786E12	3449.21875	47488.0	0.0	0.0	
-1.2366412213740459	-49.0	0.7480916030534351	81.0	1.4351145038167938	-94.0	0.46987951807228917	1284.0	9.19277108433735	2008.0	-0.03614457831325302	2050.0	-0.43727272727272726	481.0	-0.035454545454545454	-39.0	-0.22040816326530616	216.0	1.52289245977475E12	1.522892459787E12	3453.125	47616.0	0.0	0.0	
-1.0534351145038168	-41.0	0.6259541984732824	69.0	1.7099236641221374	-112.0	0.5060240963855422	1285.0	9.180722891566266	2005.0	0.0	2047.0	-0.4318181818181818	475.0	-0.03636363636363636	-40.0	-0.21938775510204084	215.0	1.5228924597786563E12	1.522892459788E12	3457.03125	47744.0	0.0	0.0	
-1.129770992366412	-41.0	0.6259541984732824	74.0	1.3893129770992365	-91.0	0.5180722891566265	1285.0	9.180722891566266	2004.0	0.0	2047.0	-0.43454545454545457	478.0	-0.025454545454545455	-28.0	-0.22142857142857145	217.0	1.5228924597825625E12	1.52289245979E12	3460.9375	47872.0	0.0	0.0	
-0.7786259541984732	-46.0	0.7022900763358778	51.0	1.5114503816793892	-99.0	0.5301204819277109	1286.0	9.168674698795181	2003.0	0.024096385542168676	2045.0	-0.43454545454545457	478.0	-0.03363636363636364	-37.0	-0.22142857142857145	217.0	1.5228924597864688E12	1.522892459826E12	3464.84375	48000.0	0.0	0.0	
-1.0381679389312977	-39.0	0.5954198473282443	68.0	1.5114503816793892	-99.0	0.5421686746987953	1285.0	9.180722891566266	2002.0	0.03614457831325302	2044.0	-0.4354545454545454	479.0	-0.03363636363636364	-37.0	-0.22755102040816327	223.0	1.522892459790375E12	1.522892459828E12	3468.75	48128.0	0.0	0.0	
-1.0229007633587786	-48.0	0.732824427480916	67.0	1.5572519083969465	-102.0	0.5301204819277109	1286.0	9.168674698795181	2003.0	0.060240963855421686	2042.0	-0.43363636363636365	477.0	-0.034545454545454546	-38.0	-0.22551020408163266	221.0	1.5228924597942813E12	1.522892459829E12	3472.65625	48256.0	0.0	0.0	
-0.7786259541984732	-27.0	0.41221374045801523	51.0	1.5114503816793892	-99.0	0.5421686746987953	1286.0	9.168674698795181	2002.0	0.03614457831325302	2044.0	-0.42818181818181816	471.0	-0.035454545454545454	-39.0	-0.21734693877551023	213.0	1.5228924597981875E12	1.522892459831E12	3476.5625	48384.0	0.0	0.0	
-1.0381679389312977	-31.0	0.47328244274809156	68.0	1.6335877862595418	-107.0	0.5421686746987953	1285.0	9.180722891566266	2002.0	0.04819277108433735	2043.0	-0.4381818181818182	482.0	-0.028181818181818183	-31.0	-0.22551020408163266	221.0	1.5228924598020938E12	1.522892459833E12	3480.46875	48512.0	0.0	0.0	
-0.8091603053435115	-33.0	0.5038167938931297	53.0	1.4961832061068703	-98.0	0.5301204819277109	1285.0	9.180722891566266	2003.0	0.03614457831325302	2044.0	-0.43	473.0	-0.025454545454545455	-28.0	-0.22551020408163266	221.0	1.522892459806E12	1.522892459835E12	3484.375	48640.0	0.0	0.0	
-0.8702290076335878	-38.0	0.5801526717557252	57.0	1.5114503816793892	-99.0	0.5421686746987953	1283.0	9.204819277108435	2002.0	0.03614457831325302	2044.0	-0.4381818181818182	482.0	-0.02727272727272727	-30.0	-0.22244897959183677	218.0	1.5228924598099063E12	1.522892459836E12	3488.28125	48768.0	0.0	0.0	
-0.7633587786259541	-34.0	0.5190839694656488	50.0	1.5114503816793892	-99.0	0.5542168674698795	1284.0	9.19277108433735	2001.0	0.04819277108433735	2043.0	-0.4381818181818182	482.0	-0.02727272727272727	-30.0	-0.22244897959183677	218.0	1.5228924598138125E12	1.522892459836E12	3492.1875	48896.0	0.0	0.0	
-1.0076335877862594	-36.0	0.549618320610687	66.0	1.450381679389313	-95.0	0.5301204819277109	1285.0	9.180722891566266	2003.0	0.060240963855421686	2042.0	-0.43727272727272726	481.0	-0.035454545454545454	-39.0	-0.22346938775510206	219.0	1.5228924598177188E12	1.522892459837E12	3496.09375	49024.0	0.0	0.0	
-0.8396946564885496	-46.0	0.7022900763358778	55.0	1.5114503816793892	-99.0	0.5301204819277109	1284.0	9.19277108433735	2003.0	0.04819277108433735	2043.0	-0.4309090909090909	474.0	-0.02181818181818182	-24.0	-0.22040816326530616	216.0	1.522892459821625E12	1.522892459838E12	3500.0	49152.0	0.0	0.0	
-0.8854961832061068	-33.0	0.5038167938931297	58.0	1.3893129770992365	-91.0	0.5421686746987953	1285.0	9.180722891566266	2002.0	0.060240963855421686	2042.0	-0.4381818181818182	482.0	-0.03	-33.0	-0.22244897959183677	218.0	1.5228924598255313E12	1.522892459843E12	3503.90625	49280.0	0.0	0.0	
-0.6717557251908397	-44.0	0.6717557251908397	44.0	1.4045801526717556	-92.0	0.5301204819277109	1284.0	9.19277108433735	2003.0	0.04819277108433735	2043.0	-0.43636363636363634	480.0	-0.034545454545454546	-38.0	-0.22244897959183677	218.0	1.5228924598294375E12	1.522892459844E12	3507.8125	49408.0	0.0	0.0	
-0.6564885496183206	-28.0	0.42748091603053434	43.0	1.450381679389313	-95.0	0.5542168674698795	1285.0	9.180722891566266	2001.0	0.04819277108433735	2043.0	-0.4309090909090909	474.0	-0.019090909090909092	-21.0	-0.22346938775510206	219.0	1.5228924598333438E12	1.522892459844E12	3511.71875	49536.0	0.0	0.0	
