left thigh	left thigh	left thigh	left thigh	left thigh	left thigh	left thigh	left thigh	left thigh	left thigh	left thigh	left thigh	left thigh	left thigh	left thigh	left thigh	left thigh	left thigh	left thigh	left thigh	left thigh	left thigh	Annotation	Annotation	
Gyroscope X	Gyroscope X	Gyroscope Y	Gyroscope Y	Gyroscope Z	Gyroscope Z	Low Noise Accelerometer X	Low Noise Accelerometer X	Low Noise Accelerometer Y	Low Noise Accelerometer Y	Low Noise Accelerometer Z	Low Noise Accelerometer Z	Magnetometer X	Magnetometer X	Magnetometer Y	Magnetometer Y	Magnetometer Z	Magnetometer Z	SyncTimestamp	SystemTimestamp	Timestamp	Timestamp	Level	Pulse	
CAL	RAW	CAL	RAW	CAL	RAW	CAL	RAW	CAL	RAW	CAL	RAW	CAL	RAW	CAL	RAW	CAL	RAW	CAL	UNCAL	CAL	RAW	no format	no format	
deg/s	No Units	deg/s	No Units	deg/s	No Units	m/s^2	No Units	m/s^2	No Units	m/s^2	No Units	local flux	No Units	local flux	No Units	local flux	No Units	mSecs	mSecs	mSecs	No Units	no unit	no unit	
-0.3511450381679389	-43.0	0.6564885496183206	23.0	1.4351145038167938	-94.0	0.27710843373493976	1284.0	9.19277108433735	2024.0	-0.07228915662650603	2053.0	-0.4318181818181818	475.0	-0.01818181818181818	-20.0	-0.22244897959183677	218.0	1.5228925453510313E12	1.52289254539E12	1031.25	33792.0	0.0	0.0	
-0.366412213740458	-41.0	0.6259541984732824	24.0	1.3893129770992365	-91.0	0.30120481927710846	1284.0	9.19277108433735	2022.0	-0.07228915662650603	2053.0	-0.42272727272727273	465.0	-0.024545454545454544	-27.0	-0.22653061224489798	222.0	1.5228925453549375E12	1.522892545391E12	1035.15625	33920.0	0.0	0.0	
-0.38167938931297707	-36.0	0.549618320610687	25.0	1.6030534351145038	-105.0	0.30120481927710846	1284.0	9.19277108433735	2022.0	-0.0963855421686747	2055.0	-0.42272727272727273	465.0	-0.024545454545454544	-27.0	-0.22653061224489798	222.0	1.5228925453588438E12	1.522892545391E12	1039.0625	34048.0	0.0	0.0	
-0.5038167938931297	-29.0	0.4427480916030534	33.0	1.5114503816793892	-99.0	0.28915662650602414	1286.0	9.168674698795181	2023.0	-0.07228915662650603	2053.0	-0.42272727272727273	465.0	-0.006363636363636364	-7.0	-0.22142857142857145	217.0	1.52289254536275E12	1.522892545391E12	1042.96875	34176.0	0.0	0.0	
-0.4427480916030534	-31.0	0.47328244274809156	29.0	1.4351145038167938	-94.0	0.26506024096385544	1285.0	9.180722891566266	2025.0	-0.0963855421686747	2055.0	-0.4263636363636364	469.0	-0.019090909090909092	-21.0	-0.22448979591836737	220.0	1.5228925453666563E12	1.522892545391E12	1046.875	34304.0	0.0	0.0	
-0.3511450381679389	-34.0	0.5190839694656488	23.0	1.4198473282442747	-93.0	0.24096385542168675	1285.0	9.180722891566266	2027.0	-0.0963855421686747	2055.0	-0.4209090909090909	463.0	-0.025454545454545455	-28.0	-0.22653061224489798	222.0	1.5228925453705625E12	1.522892545393E12	1050.78125	34432.0	0.0	0.0	
-0.549618320610687	-48.0	0.732824427480916	36.0	1.450381679389313	-95.0	0.22891566265060243	1286.0	9.168674698795181	2028.0	-0.0963855421686747	2055.0	-0.4218181818181818	464.0	-0.005454545454545455	-6.0	-0.22448979591836737	220.0	1.5228925453744688E12	1.522892545395E12	1054.6875	34560.0	0.0	0.0	
-0.7022900763358778	-44.0	0.6717557251908397	46.0	1.618320610687023	-106.0	0.2530120481927711	1286.0	9.168674698795181	2026.0	-0.10843373493975904	2056.0	-0.42818181818181816	471.0	-0.022727272727272728	-25.0	-0.22040816326530616	216.0	1.522892545378375E12	1.522892545395E12	1058.59375	34688.0	0.0	0.0	
-0.6412213740458015	-30.0	0.4580152671755725	42.0	1.4198473282442747	-93.0	0.28915662650602414	1285.0	9.180722891566266	2023.0	-0.08433734939759037	2054.0	-0.41818181818181815	460.0	-0.011818181818181818	-13.0	-0.22551020408163266	221.0	1.5228925453822813E12	1.522892545396E12	1062.5	34816.0	0.0	0.0	
-0.6717557251908397	-37.0	0.564885496183206	44.0	1.648854961832061	-108.0	0.3132530120481928	1283.0	9.204819277108435	2021.0	-0.08433734939759037	2054.0	-0.41818181818181815	460.0	-0.011818181818181818	-13.0	-0.22551020408163266	221.0	1.5228925453861875E12	1.522892545396E12	1066.40625	34944.0	0.0	0.0	
-0.6870229007633587	-43.0	0.6564885496183206	45.0	1.3435114503816794	-88.0	0.28915662650602414	1284.0	9.19277108433735	2023.0	-0.060240963855421686	2052.0	-0.4254545454545455	468.0	-0.004545454545454545	-5.0	-0.22346938775510206	219.0	1.5228925453900938E12	1.522892545396E12	1070.3125	35072.0	0.0	0.0	
-0.7786259541984732	-36.0	0.549618320610687	51.0	1.3282442748091603	-87.0	0.26506024096385544	1284.0	9.19277108433735	2025.0	-0.04819277108433735	2051.0	-0.4290909090909091	472.0	-0.022727272727272728	-25.0	-0.2163265306122449	212.0	1.522892545394E12	1.522892545406E12	1074.21875	35200.0	0.0	0.0	
-0.6717557251908397	-70.0	1.0687022900763359	44.0	1.2213740458015268	-80.0	0.24096385542168675	1283.0	9.204819277108435	2027.0	-0.060240963855421686	2052.0	-0.43272727272727274	476.0	-0.02909090909090909	-32.0	-0.22755102040816327	223.0	1.5228925453979063E12	1.522892545406E12	1078.125	35328.0	0.0	0.0	
-0.5038167938931297	-41.0	0.6259541984732824	33.0	1.4198473282442747	-93.0	0.1927710843373494	1283.0	9.204819277108435	2031.0	-0.03614457831325302	2050.0	-0.42727272727272725	470.0	-0.015454545454545455	-17.0	-0.22653061224489798	222.0	1.5228925454018125E12	1.522892545409E12	1082.03125	35456.0	0.0	0.0	
-0.564885496183206	-54.0	0.8244274809160305	37.0	1.282442748091603	-84.0	0.16867469879518074	1284.0	9.19277108433735	2033.0	-0.03614457831325302	2050.0	-0.4218181818181818	464.0	-0.012727272727272728	-14.0	-0.22448979591836737	220.0	1.5228925454057188E12	1.522892545418E12	1085.9375	35584.0	0.0	0.0	
-1.0229007633587786	-50.0	0.7633587786259541	67.0	1.3740458015267174	-90.0	0.1566265060240964	1285.0	9.180722891566266	2034.0	-0.012048192771084338	2048.0	-0.4218181818181818	464.0	-0.012727272727272728	-14.0	-0.22448979591836737	220.0	1.522892545409625E12	1.522892545418E12	1089.84375	35712.0	0.0	0.0	
-0.7175572519083969	-33.0	0.5038167938931297	47.0	1.3740458015267174	-90.0	0.14457831325301207	1283.0	9.204819277108435	2035.0	0.0	2047.0	-0.43	473.0	-0.012727272727272728	-14.0	-0.22551020408163266	221.0	1.5228925454135313E12	1.522892545419E12	1093.75	35840.0	0.0	0.0	
-0.7938931297709924	-38.0	0.5801526717557252	52.0	1.6793893129770991	-110.0	0.13253012048192772	1284.0	9.19277108433735	2036.0	0.0	2047.0	-0.42454545454545456	467.0	-0.012727272727272728	-14.0	-0.22551020408163266	221.0	1.5228925454174375E12	1.52289254543E12	1097.65625	35968.0	0.0	0.0	
-0.9770992366412213	-36.0	0.549618320610687	64.0	1.282442748091603	-84.0	0.14457831325301207	1285.0	9.180722891566266	2035.0	0.012048192771084338	2046.0	-0.42727272727272725	470.0	-0.03	-33.0	-0.22142857142857145	217.0	1.5228925454213438E12	1.52289254543E12	1101.5625	36096.0	0.0	0.0	
-0.916030534351145	-36.0	0.549618320610687	60.0	1.4198473282442747	-93.0	0.14457831325301207	1286.0	9.168674698795181	2035.0	0.0	2047.0	-0.42727272727272725	470.0	-0.013636363636363636	-15.0	-0.2163265306122449	212.0	1.52289254542525E12	1.522892545431E12	1105.46875	36224.0	0.0	0.0	
-0.7938931297709924	-47.0	0.7175572519083969	52.0	1.465648854961832	-96.0	0.14457831325301207	1285.0	9.180722891566266	2035.0	0.012048192771084338	2046.0	-0.42454545454545456	467.0	-0.01818181818181818	-20.0	-0.22653061224489798	222.0	1.5228925454291563E12	1.52289254544E12	1109.375	36352.0	0.0	0.0	
-0.8549618320610687	-41.0	0.6259541984732824	56.0	1.66412213740458	-109.0	0.18072289156626506	1284.0	9.19277108433735	2032.0	0.012048192771084338	2046.0	-0.43363636363636365	477.0	-0.03	-33.0	-0.22040816326530616	216.0	1.5228925454330625E12	1.522892545441E12	1113.28125	36480.0	0.0	0.0	
-0.7786259541984732	-40.0	0.6106870229007634	51.0	1.7251908396946565	-113.0	0.16867469879518074	1285.0	9.180722891566266	2033.0	0.0	2047.0	-0.43363636363636365	477.0	-0.03	-33.0	-0.22040816326530616	216.0	1.5228925454369688E12	1.522892545441E12	1117.1875	36608.0	0.0	0.0	
-0.7633587786259541	-28.0	0.42748091603053434	50.0	1.5572519083969465	-102.0	0.1927710843373494	1285.0	9.180722891566266	2031.0	-0.03614457831325302	2050.0	-0.4263636363636364	469.0	-0.028181818181818183	-31.0	-0.22448979591836737	220.0	1.522892545440875E12	1.522892545452E12	1121.09375	36736.0	0.0	0.0	
-0.6717557251908397	-37.0	0.564885496183206	44.0	1.618320610687023	-106.0	0.24096385542168675	1285.0	9.180722891566266	2027.0	-0.04819277108433735	2051.0	-0.42818181818181816	471.0	-0.017272727272727273	-19.0	-0.22653061224489798	222.0	1.5228925454447813E12	1.522892545453E12	1125.0	36864.0	0.0	0.0	
-0.7633587786259541	-32.0	0.48854961832061067	50.0	1.5419847328244274	-101.0	0.3132530120481928	1283.0	9.204819277108435	2021.0	-0.04819277108433735	2051.0	-0.42727272727272725	470.0	-0.03	-33.0	-0.22244897959183677	218.0	1.5228925454486875E12	1.522892545454E12	1128.90625	36992.0	0.0	0.0	
-0.5343511450381679	-51.0	0.7786259541984732	35.0	1.6030534351145038	-105.0	0.3132530120481928	1283.0	9.204819277108435	2021.0	-0.08433734939759037	2054.0	-0.42818181818181816	471.0	-0.02181818181818182	-24.0	-0.22448979591836737	220.0	1.5228925454525938E12	1.522892545461E12	1132.8125	37120.0	0.0	0.0	
-0.916030534351145	-48.0	0.732824427480916	60.0	1.3435114503816794	-88.0	0.30120481927710846	1282.0	9.216867469879519	2022.0	-0.08433734939759037	2054.0	-0.4263636363636364	469.0	-0.016363636363636365	-18.0	-0.22142857142857145	217.0	1.5228925454565E12	1.522892545462E12	1136.71875	37248.0	0.0	0.0	
-0.7633587786259541	-46.0	0.7022900763358778	50.0	1.4045801526717556	-92.0	0.2530120481927711	1283.0	9.204819277108435	2026.0	-0.07228915662650603	2053.0	-0.4309090909090909	474.0	-0.03	-33.0	-0.22142857142857145	217.0	1.5228925454604063E12	1.522892545463E12	1140.625	37376.0	0.0	0.0	
-0.732824427480916	-44.0	0.6717557251908397	48.0	1.3282442748091603	-87.0	0.20481927710843376	1283.0	9.204819277108435	2030.0	-0.08433734939759037	2054.0	-0.4309090909090909	474.0	-0.03	-33.0	-0.22142857142857145	217.0	1.5228925454643125E12	1.522892545479E12	1144.53125	37504.0	0.0	0.0	
-0.7938931297709924	-39.0	0.5954198473282443	52.0	1.297709923664122	-85.0	0.21686746987951808	1283.0	9.204819277108435	2029.0	-0.060240963855421686	2052.0	-0.4209090909090909	463.0	-0.024545454545454544	-27.0	-0.22142857142857145	217.0	1.5228925454682188E12	1.522892545479E12	1148.4375	37632.0	0.0	0.0	
-0.5954198473282443	-56.0	0.8549618320610687	39.0	1.4961832061068703	-98.0	0.21686746987951808	1284.0	9.19277108433735	2029.0	-0.060240963855421686	2052.0	-0.42454545454545456	467.0	-0.015454545454545455	-17.0	-0.22244897959183677	218.0	1.522892545472125E12	1.52289254548E12	1152.34375	37760.0	0.0	0.0	
-0.6717557251908397	-37.0	0.564885496183206	44.0	1.4961832061068703	-98.0	0.21686746987951808	1285.0	9.180722891566266	2029.0	-0.060240963855421686	2052.0	-0.4290909090909091	472.0	-0.01090909090909091	-12.0	-0.213265306122449	209.0	1.5228925454760313E12	1.522892545489E12	1156.25	37888.0	0.0	0.0	
-0.7786259541984732	-43.0	0.6564885496183206	51.0	1.3435114503816794	-88.0	0.20481927710843376	1284.0	9.19277108433735	2030.0	-0.04819277108433735	2051.0	-0.42363636363636364	466.0	-0.017272727272727273	-19.0	-0.22040816326530616	216.0	1.5228925454799375E12	1.522892545489E12	1160.15625	38016.0	0.0	0.0	
-0.7022900763358778	-47.0	0.7175572519083969	46.0	1.3282442748091603	-87.0	0.18072289156626506	1284.0	9.19277108433735	2032.0	-0.04819277108433735	2051.0	-0.42818181818181816	471.0	-0.014545454545454545	-16.0	-0.22346938775510206	219.0	1.5228925454838438E12	1.52289254549E12	1164.0625	38144.0	0.0	0.0	
-0.564885496183206	-47.0	0.7175572519083969	37.0	1.2671755725190839	-83.0	0.1566265060240964	1285.0	9.180722891566266	2034.0	-0.04819277108433735	2051.0	-0.4318181818181818	475.0	-0.02727272727272727	-30.0	-0.22244897959183677	218.0	1.52289254548775E12	1.522892545495E12	1167.96875	38272.0	0.0	0.0	
-0.6412213740458015	-47.0	0.7175572519083969	42.0	1.5114503816793892	-99.0	0.13253012048192772	1285.0	9.180722891566266	2036.0	-0.03614457831325302	2050.0	-0.4318181818181818	475.0	-0.02727272727272727	-30.0	-0.22244897959183677	218.0	1.5228925454916563E12	1.522892545495E12	1171.875	38400.0	0.0	0.0	
-0.6564885496183206	-38.0	0.5801526717557252	43.0	1.450381679389313	-95.0	0.12048192771084337	1283.0	9.204819277108435	2037.0	0.0	2047.0	-0.4290909090909091	472.0	-0.02090909090909091	-23.0	-0.21836734693877552	214.0	1.5228925454955625E12	1.522892545497E12	1175.78125	38528.0	0.0	0.0	
-0.8244274809160305	-40.0	0.6106870229007634	54.0	1.3435114503816794	-88.0	0.12048192771084337	1285.0	9.180722891566266	2037.0	-0.012048192771084338	2048.0	-0.42727272727272725	470.0	-0.011818181818181818	-13.0	-0.22040816326530616	216.0	1.5228925454994688E12	1.522892545536E12	1179.6875	38656.0	0.0	0.0	
-0.9770992366412213	-56.0	0.8549618320610687	64.0	1.465648854961832	-96.0	0.13253012048192772	1284.0	9.19277108433735	2036.0	0.0	2047.0	-0.42727272727272725	470.0	-0.012727272727272728	-14.0	-0.21530612244897962	211.0	1.522892545503375E12	1.522892545538E12	1183.59375	38784.0	0.0	0.0	
-0.8091603053435115	-40.0	0.6106870229007634	53.0	1.465648854961832	-96.0	0.13253012048192772	1285.0	9.180722891566266	2036.0	0.0	2047.0	-0.4209090909090909	463.0	-0.02181818181818182	-24.0	-0.22040816326530616	216.0	1.5228925455072813E12	1.522892545539E12	1187.5	38912.0	0.0	0.0	
-0.5954198473282443	-35.0	0.5343511450381679	39.0	1.5725190839694656	-103.0	0.10843373493975904	1284.0	9.19277108433735	2038.0	0.012048192771084338	2046.0	-0.4290909090909091	472.0	-0.01818181818181818	-20.0	-0.21938775510204084	215.0	1.5228925455111875E12	1.52289254554E12	1191.40625	39040.0	0.0	0.0	
-0.5801526717557252	-49.0	0.7480916030534351	38.0	1.6946564885496183	-111.0	0.08433734939759037	1285.0	9.180722891566266	2040.0	0.012048192771084338	2046.0	-0.4309090909090909	474.0	-0.03	-33.0	-0.22040816326530616	216.0	1.5228925455150938E12	1.522892545542E12	1195.3125	39168.0	0.0	0.0	
-0.7175572519083969	-35.0	0.5343511450381679	47.0	1.3893129770992365	-91.0	0.12048192771084337	1284.0	9.19277108433735	2037.0	0.012048192771084338	2046.0	-0.4309090909090909	474.0	-0.03	-33.0	-0.22040816326530616	216.0	1.522892545519E12	1.522892545543E12	1199.21875	39296.0	0.0	0.0	
-0.6106870229007634	-27.0	0.41221374045801523	40.0	1.6030534351145038	-105.0	0.13253012048192772	1284.0	9.19277108433735	2036.0	0.024096385542168676	2045.0	-0.42363636363636364	466.0	-0.02909090909090909	-32.0	-0.22448979591836737	220.0	1.5228925455229063E12	1.522892545554E12	1203.125	39424.0	0.0	0.0	
-0.7022900763358778	-27.0	0.41221374045801523	46.0	1.6793893129770991	-110.0	0.1566265060240964	1284.0	9.19277108433735	2034.0	0.012048192771084338	2046.0	-0.4318181818181818	475.0	-0.02181818181818182	-24.0	-0.22142857142857145	217.0	1.5228925455268125E12	1.522892545555E12	1207.03125	39552.0	0.0	0.0	
-0.6564885496183206	-29.0	0.4427480916030534	43.0	1.5419847328244274	-101.0	0.14457831325301207	1285.0	9.180722891566266	2035.0	0.0	2047.0	-0.4263636363636364	469.0	-0.03272727272727273	-36.0	-0.22448979591836737	220.0	1.5228925455307188E12	1.522892545556E12	1210.9375	39680.0	0.0	0.0	
-0.366412213740458	-36.0	0.549618320610687	24.0	1.648854961832061	-108.0	0.13253012048192772	1284.0	9.19277108433735	2036.0	-0.03614457831325302	2050.0	-0.4263636363636364	469.0	-0.02909090909090909	-32.0	-0.22755102040816327	223.0	1.522892545534625E12	1.522892545558E12	1214.84375	39808.0	0.0	0.0	
-0.8244274809160305	-33.0	0.5038167938931297	54.0	1.5725190839694656	-103.0	0.14457831325301207	1284.0	9.19277108433735	2035.0	-0.060240963855421686	2052.0	-0.4290909090909091	472.0	-0.02	-22.0	-0.22040816326530616	216.0	1.5228925455385313E12	1.522892545559E12	1218.75	39936.0	0.0	0.0	
-0.7480916030534351	-31.0	0.47328244274809156	49.0	1.7862595419847327	-117.0	0.18072289156626506	1284.0	9.19277108433735	2032.0	-0.08433734939759037	2054.0	-0.4290909090909091	472.0	-0.03	-33.0	-0.22755102040816327	223.0	1.5228925455424375E12	1.52289254556E12	1222.65625	40064.0	0.0	0.0	
-0.7022900763358778	-33.0	0.5038167938931297	46.0	1.7099236641221374	-112.0	0.16867469879518074	1283.0	9.204819277108435	2033.0	-0.07228915662650603	2053.0	-0.4290909090909091	472.0	-0.03	-33.0	-0.22755102040816327	223.0	1.5228925455463438E12	1.522892545562E12	1226.5625	40192.0	0.0	0.0	
-0.6564885496183206	-22.0	0.33587786259541985	43.0	1.6030534351145038	-105.0	0.1927710843373494	1284.0	9.19277108433735	2031.0	-0.0963855421686747	2055.0	-0.42727272727272725	470.0	-0.03	-33.0	-0.22346938775510206	219.0	1.52289254555025E12	1.522892545563E12	1230.46875	40320.0	0.0	0.0	
-0.8549618320610687	-33.0	0.5038167938931297	56.0	1.8015267175572518	-118.0	0.1927710843373494	1284.0	9.19277108433735	2031.0	-0.08433734939759037	2054.0	-0.41363636363636364	455.0	-0.01818181818181818	-20.0	-0.22142857142857145	217.0	1.5228925455541563E12	1.522892545564E12	1234.375	40448.0	0.0	0.0	
-0.7480916030534351	-28.0	0.42748091603053434	49.0	1.5572519083969465	-102.0	0.20481927710843376	1285.0	9.180722891566266	2030.0	-0.10843373493975904	2056.0	-0.4254545454545455	468.0	-0.02909090909090909	-32.0	-0.22448979591836737	220.0	1.5228925455580625E12	1.522892545565E12	1238.28125	40576.0	0.0	0.0	
-0.7633587786259541	-29.0	0.4427480916030534	50.0	1.7709923664122136	-116.0	0.22891566265060243	1283.0	9.204819277108435	2028.0	-0.08433734939759037	2054.0	-0.4290909090909091	472.0	-0.02181818181818182	-24.0	-0.22346938775510206	219.0	1.5228925455619688E12	1.522892545573E12	1242.1875	40704.0	0.0	0.0	
-0.7175572519083969	-22.0	0.33587786259541985	47.0	1.7709923664122136	-116.0	0.24096385542168675	1284.0	9.19277108433735	2027.0	-0.12048192771084337	2057.0	-0.43	473.0	-0.01818181818181818	-20.0	-0.21938775510204084	215.0	1.522892545565875E12	1.522892545574E12	1246.09375	40832.0	0.0	0.0	
-0.8702290076335878	-31.0	0.47328244274809156	57.0	1.6946564885496183	-111.0	0.26506024096385544	1283.0	9.204819277108435	2025.0	-0.12048192771084337	2057.0	-0.43	473.0	-0.013636363636363636	-15.0	-0.21734693877551023	213.0	1.5228925455697813E12	1.522892545575E12	1250.0	40960.0	0.0	0.0	
-0.7786259541984732	-47.0	0.7175572519083969	51.0	1.5877862595419847	-104.0	0.2530120481927711	1284.0	9.19277108433735	2026.0	-0.13253012048192772	2058.0	-0.42363636363636364	466.0	-0.013636363636363636	-15.0	-0.21734693877551023	213.0	1.5228925455736875E12	1.522892545585E12	1253.90625	41088.0	0.0	0.0	
-0.6106870229007634	-47.0	0.7175572519083969	40.0	1.7404580152671756	-114.0	0.24096385542168675	1283.0	9.204819277108435	2027.0	-0.14457831325301207	2059.0	-0.4263636363636364	469.0	-0.01818181818181818	-20.0	-0.22653061224489798	222.0	1.5228925455775938E12	1.522892545586E12	1257.8125	41216.0	0.0	0.0	
-0.9770992366412213	-37.0	0.564885496183206	64.0	1.7251908396946565	-113.0	0.2530120481927711	1284.0	9.19277108433735	2026.0	-0.13253012048192772	2058.0	-0.43	473.0	-0.02	-22.0	-0.22040816326530616	216.0	1.5228925455815E12	1.522892545587E12	1261.71875	41344.0	0.0	0.0	
-0.8244274809160305	-38.0	0.5801526717557252	54.0	1.7251908396946565	-113.0	0.27710843373493976	1284.0	9.19277108433735	2024.0	-0.12048192771084337	2057.0	-0.4290909090909091	472.0	-0.028181818181818183	-31.0	-0.22551020408163266	221.0	1.5228925455854063E12	1.522892545596E12	1265.625	41472.0	0.0	0.0	
-1.0534351145038168	-32.0	0.48854961832061067	69.0	1.618320610687023	-106.0	0.3493975903614458	1284.0	9.19277108433735	2018.0	-0.13253012048192772	2058.0	-0.42363636363636364	466.0	-0.017272727272727273	-19.0	-0.22551020408163266	221.0	1.5228925455893125E12	1.522892545596E12	1269.53125	41600.0	0.0	0.0	
-1.0687022900763359	-47.0	0.7175572519083969	70.0	1.6335877862595418	-107.0	0.3493975903614458	1284.0	9.19277108433735	2018.0	-0.10843373493975904	2056.0	-0.4318181818181818	475.0	-0.022727272727272728	-25.0	-0.21938775510204084	215.0	1.5228925455932188E12	1.522892545596E12	1273.4375	41728.0	0.0	0.0	
-0.9618320610687022	-46.0	0.7022900763358778	63.0	1.4198473282442747	-93.0	0.3132530120481928	1285.0	9.180722891566266	2021.0	-0.0963855421686747	2055.0	-0.4318181818181818	475.0	-0.022727272727272728	-25.0	-0.21938775510204084	215.0	1.522892545597125E12	1.522892545612E12	1277.34375	41856.0	0.0	0.0	
-1.083969465648855	-56.0	0.8549618320610687	71.0	1.4809160305343512	-97.0	0.3132530120481928	1282.0	9.216867469879519	2021.0	-0.08433734939759037	2054.0	-0.4263636363636364	469.0	-0.02181818181818182	-24.0	-0.22040816326530616	216.0	1.5228925456010313E12	1.522892545613E12	1281.25	41984.0	0.0	0.0	
-1.099236641221374	-43.0	0.6564885496183206	72.0	1.5114503816793892	-99.0	0.27710843373493976	1285.0	9.180722891566266	2024.0	-0.0963855421686747	2055.0	-0.42454545454545456	467.0	-0.017272727272727273	-19.0	-0.22244897959183677	218.0	1.5228925456049375E12	1.522892545614E12	1285.15625	42112.0	0.0	0.0	
-0.9312977099236641	-43.0	0.6564885496183206	61.0	1.5725190839694656	-103.0	0.26506024096385544	1284.0	9.19277108433735	2025.0	-0.0963855421686747	2055.0	-0.42272727272727273	465.0	-0.004545454545454545	-5.0	-0.22346938775510206	219.0	1.5228925456088438E12	1.522892545616E12	1289.0625	42240.0	0.0	0.0	
-1.0076335877862594	-36.0	0.549618320610687	66.0	1.5725190839694656	-103.0	0.30120481927710846	1284.0	9.19277108433735	2022.0	-0.0963855421686747	2055.0	-0.4263636363636364	469.0	-0.012727272727272728	-14.0	-0.22551020408163266	221.0	1.52289254561275E12	1.522892545618E12	1292.96875	42368.0	0.0	0.0	
-0.9007633587786259	-33.0	0.5038167938931297	59.0	1.5267175572519083	-100.0	0.3614457831325301	1283.0	9.204819277108435	2017.0	-0.0963855421686747	2055.0	-0.42818181818181816	471.0	-0.013636363636363636	-15.0	-0.22346938775510206	219.0	1.5228925456166563E12	1.522892545618E12	1296.875	42496.0	0.0	0.0	
-1.114503816793893	-52.0	0.7938931297709924	73.0	1.282442748091603	-84.0	0.3734939759036145	1284.0	9.19277108433735	2016.0	-0.0963855421686747	2055.0	-0.4309090909090909	474.0	-0.025454545454545455	-28.0	-0.21938775510204084	215.0	1.5228925456205625E12	1.522892545633E12	1300.78125	42624.0	0.0	0.0	
-1.1603053435114503	-68.0	1.0381679389312977	76.0	1.3129770992366412	-86.0	0.3614457831325301	1284.0	9.19277108433735	2017.0	-0.08433734939759037	2054.0	-0.4309090909090909	474.0	-0.025454545454545455	-28.0	-0.21938775510204084	215.0	1.5228925456244688E12	1.522892545634E12	1304.6875	42752.0	0.0	0.0	
-1.0381679389312977	-60.0	0.916030534351145	68.0	1.3740458015267174	-90.0	0.30120481927710846	1284.0	9.19277108433735	2022.0	-0.0963855421686747	2055.0	-0.4263636363636364	469.0	-0.01090909090909091	-12.0	-0.21836734693877552	214.0	1.522892545628375E12	1.522892545635E12	1308.59375	42880.0	0.0	0.0	
-1.114503816793893	-60.0	0.916030534351145	73.0	1.1908396946564885	-78.0	0.26506024096385544	1284.0	9.19277108433735	2025.0	-0.0963855421686747	2055.0	-0.4309090909090909	474.0	-0.02181818181818182	-24.0	-0.22448979591836737	220.0	1.5228925456322813E12	1.522892545647E12	1312.5	43008.0	0.0	0.0	
-1.0076335877862594	-47.0	0.7175572519083969	66.0	1.2061068702290076	-79.0	0.21686746987951808	1284.0	9.19277108433735	2029.0	-0.12048192771084337	2057.0	-0.4290909090909091	472.0	-0.02909090909090909	-32.0	-0.22142857142857145	217.0	1.5228925456361875E12	1.52289254565E12	1316.40625	43136.0	0.0	0.0	
-1.0687022900763359	-41.0	0.6259541984732824	70.0	1.2519083969465647	-82.0	0.2530120481927711	1284.0	9.19277108433735	2026.0	-0.12048192771084337	2057.0	-0.4318181818181818	475.0	-0.02909090909090909	-32.0	-0.22551020408163266	221.0	1.5228925456400938E12	1.522892545651E12	1320.3125	43264.0	0.0	0.0	
-1.0381679389312977	-41.0	0.6259541984732824	68.0	1.3740458015267174	-90.0	0.26506024096385544	1284.0	9.19277108433735	2025.0	-0.0963855421686747	2055.0	-0.4254545454545455	468.0	-0.016363636363636365	-18.0	-0.22551020408163266	221.0	1.522892545644E12	1.522892545653E12	1324.21875	43392.0	0.0	0.0	
-1.099236641221374	-45.0	0.6870229007633587	72.0	1.2671755725190839	-83.0	0.30120481927710846	1286.0	9.168674698795181	2022.0	-0.0963855421686747	2055.0	-0.43	473.0	-0.03090909090909091	-34.0	-0.22142857142857145	217.0	1.5228925456479063E12	1.522892545654E12	1328.125	43520.0	0.0	0.0	
-1.099236641221374	-52.0	0.7938931297709924	72.0	1.1908396946564885	-78.0	0.30120481927710846	1283.0	9.204819277108435	2022.0	-0.0963855421686747	2055.0	-0.43	473.0	-0.03090909090909091	-34.0	-0.22142857142857145	217.0	1.5228925456518125E12	1.522892545655E12	1332.03125	43648.0	0.0	0.0	
-1.2213740458015268	-60.0	0.916030534351145	80.0	1.1908396946564885	-78.0	0.2530120481927711	1285.0	9.180722891566266	2026.0	-0.08433734939759037	2054.0	-0.42454545454545456	467.0	-0.02909090909090909	-32.0	-0.22551020408163266	221.0	1.5228925456557188E12	1.522892545688E12	1335.9375	43776.0	0.0	0.0	
-1.3129770992366412	-63.0	0.9618320610687022	86.0	1.3282442748091603	-87.0	0.24096385542168675	1285.0	9.180722891566266	2027.0	-0.08433734939759037	2054.0	-0.41545454545454547	457.0	-0.024545454545454544	-27.0	-0.22244897959183677	218.0	1.522892545659625E12	1.52289254569E12	1339.84375	43904.0	0.0	0.0	
-1.1755725190839694	-50.0	0.7633587786259541	77.0	1.1603053435114503	-76.0	0.21686746987951808	1285.0	9.180722891566266	2029.0	-0.08433734939759037	2054.0	-0.4209090909090909	463.0	-0.00909090909090909	-10.0	-0.22755102040816327	223.0	1.5228925456635313E12	1.522892545691E12	1343.75	44032.0	0.0	0.0	
-1.1450381679389312	-48.0	0.732824427480916	75.0	1.3282442748091603	-87.0	0.24096385542168675	1284.0	9.19277108433735	2027.0	-0.07228915662650603	2053.0	-0.4263636363636364	469.0	-0.019090909090909092	-21.0	-0.22448979591836737	220.0	1.5228925456674375E12	1.522892545693E12	1347.65625	44160.0	0.0	0.0	
-1.4045801526717556	-45.0	0.6870229007633587	92.0	1.282442748091603	-84.0	0.24096385542168675	1284.0	9.19277108433735	2027.0	-0.060240963855421686	2052.0	-0.42727272727272725	470.0	-0.019090909090909092	-21.0	-0.22653061224489798	222.0	1.5228925456713438E12	1.522892545694E12	1351.5625	44288.0	0.0	0.0	
-1.114503816793893	-51.0	0.7786259541984732	73.0	1.3282442748091603	-87.0	0.24096385542168675	1284.0	9.19277108433735	2027.0	-0.04819277108433735	2051.0	-0.4318181818181818	475.0	-0.02909090909090909	-32.0	-0.22346938775510206	219.0	1.52289254567525E12	1.522892545696E12	1355.46875	44416.0	0.0	0.0	
-1.2366412213740459	-44.0	0.6717557251908397	81.0	1.3435114503816794	-88.0	0.2530120481927711	1283.0	9.204819277108435	2026.0	-0.060240963855421686	2052.0	-0.4318181818181818	475.0	-0.02909090909090909	-32.0	-0.22346938775510206	219.0	1.5228925456791563E12	1.522892545697E12	1359.375	44544.0	0.0	0.0	
-1.2213740458015268	-43.0	0.6564885496183206	80.0	1.3435114503816794	-88.0	0.1927710843373494	1284.0	9.19277108433735	2031.0	-0.04819277108433735	2051.0	-0.4218181818181818	464.0	-0.024545454545454544	-27.0	-0.22755102040816327	223.0	1.5228925456830625E12	1.522892545699E12	1363.28125	44672.0	0.0	0.0	
-1.1908396946564885	-54.0	0.8244274809160305	78.0	1.297709923664122	-85.0	0.18072289156626506	1285.0	9.180722891566266	2032.0	-0.024096385542168676	2049.0	-0.4290909090909091	472.0	-0.022727272727272728	-25.0	-0.22244897959183677	218.0	1.5228925456869688E12	1.522892545701E12	1367.1875	44800.0	0.0	0.0	
-1.129770992366412	-42.0	0.6412213740458015	74.0	1.3587786259541985	-89.0	0.18072289156626506	1286.0	9.168674698795181	2032.0	-0.012048192771084338	2048.0	-0.4318181818181818	475.0	-0.03	-33.0	-0.22142857142857145	217.0	1.522892545690875E12	1.522892545702E12	1371.09375	44928.0	0.0	0.0	
-1.282442748091603	-54.0	0.8244274809160305	84.0	1.3893129770992365	-91.0	0.18072289156626506	1285.0	9.180722891566266	2032.0	-0.012048192771084338	2048.0	-0.42454545454545456	467.0	-0.02727272727272727	-30.0	-0.22653061224489798	222.0	1.5228925456947813E12	1.522892545703E12	1375.0	45056.0	0.0	0.0	
-1.1908396946564885	-36.0	0.549618320610687	78.0	1.3587786259541985	-89.0	0.21686746987951808	1284.0	9.19277108433735	2029.0	-0.024096385542168676	2049.0	-0.42454545454545456	467.0	-0.01818181818181818	-20.0	-0.21836734693877552	214.0	1.5228925456986875E12	1.522892545705E12	1378.90625	45184.0	0.0	0.0	
-1.3129770992366412	-54.0	0.8244274809160305	86.0	1.3740458015267174	-90.0	0.20481927710843376	1284.0	9.19277108433735	2030.0	-0.03614457831325302	2050.0	-0.4290909090909091	472.0	-0.01090909090909091	-12.0	-0.2122448979591837	208.0	1.5228925457025938E12	1.522892545715E12	1382.8125	45312.0	0.0	0.0	
-1.1603053435114503	-54.0	0.8244274809160305	76.0	1.4198473282442747	-93.0	0.20481927710843376	1285.0	9.180722891566266	2030.0	-0.04819277108433735	2051.0	-0.4290909090909091	472.0	-0.01090909090909091	-12.0	-0.2122448979591837	208.0	1.5228925457065E12	1.522892545716E12	1386.71875	45440.0	0.0	0.0	
-1.3435114503816794	-51.0	0.7786259541984732	88.0	1.3282442748091603	-87.0	0.18072289156626506	1283.0	9.204819277108435	2032.0	-0.03614457831325302	2050.0	-0.43	473.0	-0.02	-22.0	-0.21836734693877552	214.0	1.5228925457104063E12	1.522892545718E12	1390.625	45568.0	0.0	0.0	
-1.282442748091603	-40.0	0.6106870229007634	84.0	1.3435114503816794	-88.0	0.18072289156626506	1284.0	9.19277108433735	2032.0	-0.03614457831325302	2050.0	-0.4290909090909091	472.0	-0.025454545454545455	-28.0	-0.22040816326530616	216.0	1.5228925457143125E12	1.522892545724E12	1394.53125	45696.0	0.0	0.0	
-1.2061068702290076	-39.0	0.5954198473282443	79.0	1.3282442748091603	-87.0	0.20481927710843376	1283.0	9.204819277108435	2030.0	-0.012048192771084338	2048.0	-0.4290909090909091	472.0	-0.012727272727272728	-14.0	-0.22346938775510206	219.0	1.5228925457182188E12	1.522892545724E12	1398.4375	45824.0	0.0	0.0	
-1.2519083969465647	-36.0	0.549618320610687	82.0	1.2671755725190839	-83.0	0.20481927710843376	1284.0	9.19277108433735	2030.0	0.024096385542168676	2045.0	-0.4218181818181818	464.0	-0.02181818181818182	-24.0	-0.22755102040816327	223.0	1.522892545722125E12	1.522892545725E12	1402.34375	45952.0	0.0	0.0	
-1.2213740458015268	-49.0	0.7480916030534351	80.0	1.282442748091603	-84.0	0.21686746987951808	1285.0	9.180722891566266	2029.0	0.024096385542168676	2045.0	-0.43	473.0	-0.013636363636363636	-15.0	-0.22346938775510206	219.0	1.5228925457260313E12	1.522892545741E12	1406.25	46080.0	0.0	0.0	
-1.2213740458015268	-39.0	0.5954198473282443	80.0	1.3893129770992365	-91.0	0.21686746987951808	1284.0	9.19277108433735	2029.0	0.0	2047.0	-0.4290909090909091	472.0	-0.03	-33.0	-0.22142857142857145	217.0	1.5228925457299375E12	1.522892545742E12	1410.15625	46208.0	0.0	0.0	
-1.2671755725190839	-34.0	0.5190839694656488	83.0	1.3129770992366412	-86.0	0.20481927710843376	1285.0	9.180722891566266	2030.0	0.0	2047.0	-0.4290909090909091	472.0	-0.03	-33.0	-0.22142857142857145	217.0	1.5228925457338438E12	1.522892545742E12	1414.0625	46336.0	0.0	0.0	
-1.129770992366412	-43.0	0.6564885496183206	74.0	1.282442748091603	-84.0	0.16867469879518074	1284.0	9.19277108433735	2033.0	-0.012048192771084338	2048.0	-0.4209090909090909	463.0	-0.025454545454545455	-28.0	-0.22551020408163266	221.0	1.52289254573775E12	1.52289254575E12	1417.96875	46464.0	0.0	0.0	
-1.0381679389312977	-38.0	0.5801526717557252	68.0	1.2519083969465647	-82.0	0.1566265060240964	1286.0	9.168674698795181	2034.0	-0.012048192771084338	2048.0	-0.4290909090909091	472.0	-0.019090909090909092	-21.0	-0.21938775510204084	215.0	1.5228925457416563E12	1.52289254575E12	1421.875	46592.0	0.0	0.0	
-1.297709923664122	-39.0	0.5954198473282443	85.0	1.4961832061068703	-98.0	0.14457831325301207	1286.0	9.168674698795181	2035.0	-0.024096385542168676	2049.0	-0.4218181818181818	464.0	-0.005454545454545455	-6.0	-0.22244897959183677	218.0	1.5228925457455625E12	1.522892545751E12	1425.78125	46720.0	0.0	0.0	
-1.2213740458015268	-29.0	0.4427480916030534	80.0	1.4351145038167938	-94.0	0.18072289156626506	1287.0	9.156626506024097	2032.0	-0.024096385542168676	2049.0	-0.42363636363636364	466.0	-0.028181818181818183	-31.0	-0.22551020408163266	221.0	1.5228925457494688E12	1.522892545759E12	1429.6875	46848.0	0.0	0.0	
-1.297709923664122	-35.0	0.5343511450381679	85.0	1.6030534351145038	-105.0	0.28915662650602414	1284.0	9.19277108433735	2023.0	-0.024096385542168676	2049.0	-0.4318181818181818	475.0	-0.017272727272727273	-19.0	-0.22040816326530616	216.0	1.522892545753375E12	1.52289254576E12	1433.59375	46976.0	0.0	0.0	
-1.3129770992366412	-28.0	0.42748091603053434	86.0	1.6335877862595418	-107.0	0.3132530120481928	1283.0	9.204819277108435	2021.0	-0.03614457831325302	2050.0	-0.4318181818181818	475.0	-0.017272727272727273	-19.0	-0.22040816326530616	216.0	1.5228925457572813E12	1.522892545762E12	1437.5	47104.0	0.0	0.0	
-1.099236641221374	-51.0	0.7786259541984732	72.0	1.2519083969465647	-82.0	0.28915662650602414	1283.0	9.204819277108435	2023.0	-0.03614457831325302	2050.0	-0.43	473.0	-0.015454545454545455	-17.0	-0.2142857142857143	210.0	1.5228925457611875E12	1.522892545775E12	1441.40625	47232.0	0.0	0.0	
-1.0534351145038168	-63.0	0.9618320610687022	69.0	1.282442748091603	-84.0	0.27710843373493976	1283.0	9.204819277108435	2024.0	-0.03614457831325302	2050.0	-0.42454545454545456	467.0	-0.031818181818181815	-35.0	-0.22448979591836737	220.0	1.5228925457650938E12	1.522892545776E12	1445.3125	47360.0	0.0	0.0	
-1.1908396946564885	-60.0	0.916030534351145	78.0	1.3129770992366412	-86.0	0.20481927710843376	1282.0	9.216867469879519	2030.0	-0.060240963855421686	2052.0	-0.4263636363636364	469.0	-0.016363636363636365	-18.0	-0.22040816326530616	216.0	1.522892545769E12	1.522892545777E12	1449.21875	47488.0	0.0	0.0	
-1.465648854961832	-43.0	0.6564885496183206	96.0	1.1908396946564885	-78.0	0.16867469879518074	1284.0	9.19277108433735	2033.0	-0.03614457831325302	2050.0	-0.4290909090909091	472.0	-0.025454545454545455	-28.0	-0.22448979591836737	220.0	1.5228925457729063E12	1.522892545781E12	1453.125	47616.0	0.0	0.0	
-1.4198473282442747	-44.0	0.6717557251908397	93.0	1.1908396946564885	-78.0	0.20481927710843376	1285.0	9.180722891566266	2030.0	-0.03614457831325302	2050.0	-0.42363636363636364	466.0	-0.026363636363636363	-29.0	-0.22448979591836737	220.0	1.5228925457768125E12	1.522892545782E12	1457.03125	47744.0	0.0	0.0	
-1.1450381679389312	-55.0	0.8396946564885496	75.0	1.2061068702290076	-79.0	0.22891566265060243	1284.0	9.19277108433735	2028.0	-0.012048192771084338	2048.0	-0.4290909090909091	472.0	-0.01818181818181818	-20.0	-0.21938775510204084	215.0	1.5228925457807188E12	1.522892545783E12	1460.9375	47872.0	0.0	0.0	
-1.2519083969465647	-39.0	0.5954198473282443	82.0	1.3282442748091603	-87.0	0.2530120481927711	1284.0	9.19277108433735	2026.0	-0.03614457831325302	2050.0	-0.4290909090909091	472.0	-0.01818181818181818	-20.0	-0.21938775510204084	215.0	1.522892545784625E12	1.522892545795E12	1464.84375	48000.0	0.0	0.0	
-1.2213740458015268	-58.0	0.8854961832061068	80.0	1.1908396946564885	-78.0	0.28915662650602414	1283.0	9.204819277108435	2023.0	-0.024096385542168676	2049.0	-0.4254545454545455	468.0	-0.02181818181818182	-24.0	-0.22653061224489798	222.0	1.5228925457885313E12	1.522892545796E12	1468.75	48128.0	0.0	0.0	
-1.2671755725190839	-63.0	0.9618320610687022	83.0	1.2061068702290076	-79.0	0.24096385542168675	1283.0	9.204819277108435	2027.0	-0.012048192771084338	2048.0	-0.42454545454545456	467.0	-0.02090909090909091	-23.0	-0.22551020408163266	221.0	1.5228925457924375E12	1.522892545797E12	1472.65625	48256.0	0.0	0.0	
-1.3740458015267174	-64.0	0.9770992366412213	90.0	1.1755725190839694	-77.0	0.20481927710843376	1284.0	9.19277108433735	2030.0	-0.024096385542168676	2049.0	-0.4218181818181818	464.0	-9.090909090909091E-4	-1.0	-0.22346938775510206	219.0	1.5228925457963438E12	1.52289254584E12	1476.5625	48384.0	0.0	0.0	
-1.0381679389312977	-72.0	1.099236641221374	68.0	1.099236641221374	-72.0	0.1566265060240964	1284.0	9.19277108433735	2034.0	-0.024096385542168676	2049.0	-0.43	473.0	-0.022727272727272728	-25.0	-0.22653061224489798	222.0	1.52289254580025E12	1.522892545841E12	1480.46875	48512.0	0.0	0.0	
-1.2213740458015268	-65.0	0.9923664122137404	80.0	1.3282442748091603	-87.0	0.12048192771084337	1283.0	9.204819277108435	2037.0	-0.024096385542168676	2049.0	-0.4209090909090909	463.0	-0.01818181818181818	-20.0	-0.22346938775510206	219.0	1.5228925458041563E12	1.522892545843E12	1484.375	48640.0	0.0	0.0	
-1.2519083969465647	-53.0	0.8091603053435115	82.0	1.3740458015267174	-90.0	0.1566265060240964	1283.0	9.204819277108435	2034.0	-0.024096385542168676	2049.0	-0.4290909090909091	472.0	-0.02	-22.0	-0.22244897959183677	218.0	1.5228925458080625E12	1.522892545845E12	1488.28125	48768.0	0.0	0.0	
-1.297709923664122	-51.0	0.7786259541984732	85.0	1.3129770992366412	-86.0	0.14457831325301207	1284.0	9.19277108433735	2035.0	-0.012048192771084338	2048.0	-0.4290909090909091	472.0	-0.02	-22.0	-0.22244897959183677	218.0	1.5228925458119688E12	1.522892545846E12	1492.1875	48896.0	0.0	0.0	
-1.129770992366412	-45.0	0.6870229007633587	74.0	1.1755725190839694	-77.0	0.13253012048192772	1286.0	9.168674698795181	2036.0	0.024096385542168676	2045.0	-0.42363636363636364	466.0	-0.012727272727272728	-14.0	-0.22244897959183677	218.0	1.522892545815875E12	1.522892545848E12	1496.09375	49024.0	0.0	0.0	
-1.297709923664122	-60.0	0.916030534351145	85.0	1.2671755725190839	-83.0	0.13253012048192772	1285.0	9.180722891566266	2036.0	0.04819277108433735	2043.0	-0.42363636363636364	466.0	-0.017272727272727273	-19.0	-0.22346938775510206	219.0	1.5228925458197813E12	1.52289254585E12	1500.0	49152.0	0.0	0.0	
-1.4809160305343512	-65.0	0.9923664122137404	97.0	1.4198473282442747	-93.0	0.0963855421686747	1286.0	9.168674698795181	2039.0	0.04819277108433735	2043.0	-0.4309090909090909	474.0	-0.02090909090909091	-23.0	-0.22142857142857145	217.0	1.5228925458236875E12	1.522892545852E12	1503.90625	49280.0	0.0	0.0	
-1.297709923664122	-43.0	0.6564885496183206	85.0	1.3282442748091603	-87.0	0.10843373493975904	1286.0	9.168674698795181	2038.0	0.08433734939759037	2040.0	-0.43363636363636365	477.0	-0.02909090909090909	-32.0	-0.22448979591836737	220.0	1.5228925458275938E12	1.522892545854E12	1507.8125	49408.0	0.0	0.0	
-1.4809160305343512	-53.0	0.8091603053435115	97.0	1.5419847328244274	-101.0	0.10843373493975904	1285.0	9.180722891566266	2038.0	0.08433734939759037	2040.0	-0.42454545454545456	467.0	-0.012727272727272728	-14.0	-0.22244897959183677	218.0	1.5228925458315E12	1.522892545855E12	1511.71875	49536.0	0.0	0.0	
-1.2061068702290076	-43.0	0.6564885496183206	79.0	1.5114503816793892	-99.0	0.1566265060240964	1284.0	9.19277108433735	2034.0	0.07228915662650603	2041.0	-0.43	473.0	-0.02181818181818182	-24.0	-0.22346938775510206	219.0	1.5228925458354063E12	1.522892545856E12	1515.625	49664.0	0.0	0.0	
-1.4045801526717556	-36.0	0.549618320610687	92.0	1.450381679389313	-95.0	0.18072289156626506	1286.0	9.168674698795181	2032.0	0.07228915662650603	2041.0	-0.43	473.0	-0.02181818181818182	-24.0	-0.22346938775510206	219.0	1.5228925458393125E12	1.522892545858E12	1519.53125	49792.0	0.0	0.0	
-1.2519083969465647	-32.0	0.48854961832061067	82.0	1.7557251908396947	-115.0	0.16867469879518074	1283.0	9.204819277108435	2033.0	0.08433734939759037	2040.0	-0.4318181818181818	475.0	-0.02727272727272727	-30.0	-0.22653061224489798	222.0	1.5228925458432188E12	1.522892545859E12	1523.4375	49920.0	0.0	0.0	
-1.2519083969465647	-37.0	0.564885496183206	82.0	1.5725190839694656	-103.0	0.18072289156626506	1284.0	9.19277108433735	2032.0	0.07228915662650603	2041.0	-0.4263636363636364	469.0	-0.017272727272727273	-19.0	-0.22551020408163266	221.0	1.522892545847125E12	1.522892545861E12	1527.34375	50048.0	0.0	0.0	
-1.2519083969465647	-26.0	0.3969465648854962	82.0	1.648854961832061	-108.0	0.22891566265060243	1285.0	9.180722891566266	2028.0	0.04819277108433735	2043.0	-0.43	473.0	-0.022727272727272728	-25.0	-0.22142857142857145	217.0	1.5228925458510313E12	1.522892545862E12	1531.25	50176.0	0.0	0.0	
-1.3587786259541985	-36.0	0.549618320610687	89.0	1.3740458015267174	-90.0	0.26506024096385544	1284.0	9.19277108433735	2025.0	0.04819277108433735	2043.0	-0.42818181818181816	471.0	-0.01	-11.0	-0.21938775510204084	215.0	1.5228925458549375E12	1.522892545864E12	1535.15625	50304.0	0.0	0.0	
-1.0076335877862594	-34.0	0.5190839694656488	66.0	1.6335877862595418	-107.0	0.26506024096385544	1285.0	9.180722891566266	2025.0	0.012048192771084338	2046.0	-0.4309090909090909	474.0	-0.02090909090909091	-23.0	-0.22448979591836737	220.0	1.5228925458588438E12	1.522892545872E12	1539.0625	50432.0	0.0	0.0	
-1.114503816793893	-38.0	0.5801526717557252	73.0	1.4351145038167938	-94.0	0.2530120481927711	1283.0	9.204819277108435	2026.0	0.012048192771084338	2046.0	-0.4218181818181818	464.0	-0.006363636363636364	-7.0	-0.22142857142857145	217.0	1.52289254586275E12	1.522892545873E12	1542.96875	50560.0	0.0	0.0	
-1.0534351145038168	-52.0	0.7938931297709924	69.0	1.4351145038167938	-94.0	0.2530120481927711	1284.0	9.19277108433735	2026.0	-0.012048192771084338	2048.0	-0.4218181818181818	464.0	-0.006363636363636364	-7.0	-0.22142857142857145	217.0	1.5228925458666563E12	1.522892545874E12	1546.875	50688.0	0.0	0.0	
-1.1908396946564885	-51.0	0.7786259541984732	78.0	1.4045801526717556	-92.0	0.26506024096385544	1284.0	9.19277108433735	2025.0	0.0	2047.0	-0.42818181818181816	471.0	-0.008181818181818182	-9.0	-0.21938775510204084	215.0	1.5228925458705625E12	1.522892545881E12	1550.78125	50816.0	0.0	0.0	
-1.2213740458015268	-42.0	0.6412213740458015	80.0	1.5267175572519083	-100.0	0.24096385542168675	1284.0	9.19277108433735	2027.0	-0.012048192771084338	2048.0	-0.42454545454545456	467.0	-0.019090909090909092	-21.0	-0.22142857142857145	217.0	1.5228925458744688E12	1.522892545883E12	1554.6875	50944.0	0.0	0.0	
-1.0381679389312977	-48.0	0.732824427480916	68.0	1.5114503816793892	-99.0	0.22891566265060243	1284.0	9.19277108433735	2028.0	0.012048192771084338	2046.0	-0.4309090909090909	474.0	-0.024545454545454544	-27.0	-0.21938775510204084	215.0	1.522892545878375E12	1.522892545884E12	1558.59375	51072.0	0.0	0.0	
-0.9923664122137404	-37.0	0.564885496183206	65.0	1.5114503816793892	-99.0	0.24096385542168675	1285.0	9.180722891566266	2027.0	0.012048192771084338	2046.0	-0.43	473.0	-0.028181818181818183	-31.0	-0.22755102040816327	223.0	1.5228925458822813E12	1.522892545894E12	1562.5	51200.0	0.0	0.0	
-1.0534351145038168	-42.0	0.6412213740458015	69.0	1.3282442748091603	-87.0	0.22891566265060243	1284.0	9.19277108433735	2028.0	0.012048192771084338	2046.0	-0.4290909090909091	472.0	-0.02	-22.0	-0.22448979591836737	220.0	1.5228925458861875E12	1.522892545895E12	1566.40625	51328.0	0.0	0.0	
-1.0687022900763359	-41.0	0.6259541984732824	70.0	1.450381679389313	-95.0	0.21686746987951808	1285.0	9.180722891566266	2029.0	0.012048192771084338	2046.0	-0.4290909090909091	472.0	-0.025454545454545455	-28.0	-0.22040816326530616	216.0	1.5228925458900938E12	1.522892545896E12	1570.3125	51456.0	0.0	0.0	
-1.1603053435114503	-42.0	0.6412213740458015	76.0	1.3435114503816794	-88.0	0.22891566265060243	1285.0	9.180722891566266	2028.0	0.012048192771084338	2046.0	-0.4309090909090909	474.0	-0.025454545454545455	-28.0	-0.22040816326530616	216.0	1.522892545894E12	1.522892545906E12	1574.21875	51584.0	0.0	0.0	
-1.0229007633587786	-40.0	0.6106870229007634	67.0	1.282442748091603	-84.0	0.22891566265060243	1284.0	9.19277108433735	2028.0	0.012048192771084338	2046.0	-0.4290909090909091	472.0	-0.012727272727272728	-14.0	-0.21734693877551023	213.0	1.5228925458979063E12	1.522892545908E12	1578.125	51712.0	0.0	0.0	
-1.2519083969465647	-49.0	0.7480916030534351	82.0	1.4351145038167938	-94.0	0.22891566265060243	1285.0	9.180722891566266	2028.0	0.0	2047.0	-0.4254545454545455	468.0	-0.015454545454545455	-17.0	-0.22551020408163266	221.0	1.5228925459018125E12	1.522892545909E12	1582.03125	51840.0	0.0	0.0	
-1.1908396946564885	-36.0	0.549618320610687	78.0	1.3129770992366412	-86.0	0.20481927710843376	1284.0	9.19277108433735	2030.0	0.024096385542168676	2045.0	-0.43	473.0	-0.028181818181818183	-31.0	-0.22040816326530616	216.0	1.5228925459057188E12	1.522892545914E12	1585.9375	51968.0	0.0	0.0	
-1.099236641221374	-42.0	0.6412213740458015	72.0	1.3282442748091603	-87.0	0.20481927710843376	1285.0	9.180722891566266	2030.0	0.03614457831325302	2044.0	-0.42818181818181816	471.0	-0.03	-33.0	-0.22346938775510206	219.0	1.522892545909625E12	1.522892545915E12	1589.84375	52096.0	0.0	0.0	
-1.1603053435114503	-49.0	0.7480916030534351	76.0	1.4809160305343512	-97.0	0.1927710843373494	1284.0	9.19277108433735	2031.0	0.03614457831325302	2044.0	-0.42363636363636364	466.0	-0.01090909090909091	-12.0	-0.22346938775510206	219.0	1.5228925459135313E12	1.522892545916E12	1593.75	52224.0	0.0	0.0	
-1.2213740458015268	-40.0	0.6106870229007634	80.0	1.2061068702290076	-79.0	0.16867469879518074	1284.0	9.19277108433735	2033.0	0.03614457831325302	2044.0	-0.42363636363636364	466.0	-0.01090909090909091	-12.0	-0.22346938775510206	219.0	1.5228925459174375E12	1.522892545929E12	1597.65625	52352.0	0.0	0.0	
-1.129770992366412	-45.0	0.6870229007633587	74.0	1.4351145038167938	-94.0	0.16867469879518074	1284.0	9.19277108433735	2033.0	0.04819277108433735	2043.0	-0.42727272727272725	470.0	-0.03	-33.0	-0.22142857142857145	217.0	1.5228925459213438E12	1.52289254593E12	1601.5625	52480.0	0.0	0.0	
-1.1908396946564885	-26.0	0.3969465648854962	78.0	1.5572519083969465	-102.0	0.18072289156626506	1286.0	9.168674698795181	2032.0	0.04819277108433735	2043.0	-0.4254545454545455	468.0	-0.024545454545454544	-27.0	-0.22551020408163266	221.0	1.52289254592525E12	1.522892545932E12	1605.46875	52608.0	0.0	0.0	
-0.9618320610687022	-29.0	0.4427480916030534	63.0	1.618320610687023	-106.0	0.20481927710843376	1285.0	9.180722891566266	2030.0	0.03614457831325302	2044.0	-0.41454545454545455	456.0	-0.023636363636363636	-26.0	-0.22551020408163266	221.0	1.5228925459291563E12	1.522892545939E12	1609.375	52736.0	0.0	0.0	
-1.114503816793893	-27.0	0.41221374045801523	73.0	1.450381679389313	-95.0	0.22891566265060243	1284.0	9.19277108433735	2028.0	0.03614457831325302	2044.0	-0.4309090909090909	474.0	-0.03	-33.0	-0.22244897959183677	218.0	1.5228925459330625E12	1.522892545941E12	1613.28125	52864.0	0.0	0.0	
-0.9923664122137404	-30.0	0.4580152671755725	65.0	1.3587786259541985	-89.0	0.24096385542168675	1285.0	9.180722891566266	2027.0	0.012048192771084338	2046.0	-0.42727272727272725	470.0	-0.028181818181818183	-31.0	-0.22551020408163266	221.0	1.5228925459369688E12	1.522892545942E12	1617.1875	52992.0	0.0	0.0	
-1.2366412213740459	-22.0	0.33587786259541985	81.0	1.3282442748091603	-87.0	0.2530120481927711	1286.0	9.168674698795181	2026.0	0.012048192771084338	2046.0	-0.42454545454545456	467.0	-0.01818181818181818	-20.0	-0.22448979591836737	220.0	1.522892545940875E12	1.522892545951E12	1621.09375	53120.0	0.0	0.0	
-1.129770992366412	-35.0	0.5343511450381679	74.0	1.4351145038167938	-94.0	0.26506024096385544	1285.0	9.180722891566266	2025.0	0.0	2047.0	-0.42454545454545456	467.0	-0.01818181818181818	-20.0	-0.22448979591836737	220.0	1.5228925459447813E12	1.522892545953E12	1625.0	53248.0	0.0	0.0	
-0.9618320610687022	-32.0	0.48854961832061067	63.0	1.5267175572519083	-100.0	0.26506024096385544	1284.0	9.19277108433735	2025.0	-0.012048192771084338	2048.0	-0.4172727272727273	459.0	-0.004545454545454545	-5.0	-0.21836734693877552	214.0	1.5228925459486875E12	1.522892545954E12	1628.90625	53376.0	0.0	0.0	
-1.099236641221374	-49.0	0.7480916030534351	72.0	1.3435114503816794	-88.0	0.2530120481927711	1282.0	9.216867469879519	2026.0	-0.024096385542168676	2049.0	-0.4218181818181818	464.0	-0.023636363636363636	-26.0	-0.22653061224489798	222.0	1.5228925459525938E12	1.522892545993E12	1632.8125	53504.0	0.0	0.0	
-1.1908396946564885	-38.0	0.5801526717557252	78.0	1.3435114503816794	-88.0	0.22891566265060243	1284.0	9.19277108433735	2028.0	-0.012048192771084338	2048.0	-0.4263636363636364	469.0	-0.02	-22.0	-0.22551020408163266	221.0	1.5228925459565E12	1.522892545994E12	1636.71875	53632.0	0.0	0.0	
-0.8854961832061068	-39.0	0.5954198473282443	58.0	1.2061068702290076	-79.0	0.22891566265060243	1284.0	9.19277108433735	2028.0	0.0	2047.0	-0.42818181818181816	471.0	-0.028181818181818183	-31.0	-0.22142857142857145	217.0	1.5228925459604063E12	1.522892545996E12	1640.625	53760.0	0.0	0.0	
-1.0687022900763359	-46.0	0.7022900763358778	70.0	1.450381679389313	-95.0	0.24096385542168675	1285.0	9.180722891566266	2027.0	0.0	2047.0	-0.4218181818181818	464.0	-0.025454545454545455	-28.0	-0.22551020408163266	221.0	1.5228925459643125E12	1.522892545997E12	1644.53125	53888.0	0.0	0.0	
-1.2061068702290076	-38.0	0.5801526717557252	79.0	1.2213740458015268	-80.0	0.22891566265060243	1286.0	9.168674698795181	2028.0	-0.012048192771084338	2048.0	-0.42272727272727273	465.0	-0.01090909090909091	-12.0	-0.21836734693877552	214.0	1.5228925459682188E12	1.522892545999E12	1648.4375	54016.0	0.0	0.0	
-1.0534351145038168	-41.0	0.6259541984732824	69.0	1.1450381679389312	-75.0	0.24096385542168675	1284.0	9.19277108433735	2027.0	0.0	2047.0	-0.42272727272727273	465.0	-0.01090909090909091	-12.0	-0.21836734693877552	214.0	1.522892545972125E12	1.522892546E12	1652.34375	54144.0	0.0	0.0	
-1.1755725190839694	-61.0	0.9312977099236641	77.0	1.282442748091603	-84.0	0.2530120481927711	1286.0	9.168674698795181	2026.0	0.024096385542168676	2045.0	-0.43272727272727274	476.0	-0.02727272727272727	-30.0	-0.22244897959183677	218.0	1.5228925459760313E12	1.522892546002E12	1656.25	54272.0	0.0	0.0	
-1.0076335877862594	-35.0	0.5343511450381679	66.0	1.2061068702290076	-79.0	0.2530120481927711	1285.0	9.180722891566266	2026.0	0.03614457831325302	2044.0	-0.4263636363636364	469.0	-0.024545454545454544	-27.0	-0.22551020408163266	221.0	1.5228925459799375E12	1.522892546003E12	1660.15625	54400.0	0.0	0.0	
-1.0229007633587786	-57.0	0.8702290076335878	67.0	1.297709923664122	-85.0	0.21686746987951808	1284.0	9.19277108433735	2029.0	0.024096385542168676	2045.0	-0.4254545454545455	468.0	-0.017272727272727273	-19.0	-0.22142857142857145	217.0	1.5228925459838438E12	1.522892546005E12	1664.0625	54528.0	0.0	0.0	
-1.0229007633587786	-58.0	0.8854961832061068	67.0	1.3587786259541985	-89.0	0.24096385542168675	1284.0	9.19277108433735	2027.0	0.03614457831325302	2044.0	-0.4318181818181818	475.0	-0.031818181818181815	-35.0	-0.22346938775510206	219.0	1.52289254598775E12	1.522892546007E12	1667.96875	54656.0	0.0	0.0	
-1.083969465648855	-30.0	0.4580152671755725	71.0	1.297709923664122	-85.0	0.21686746987951808	1285.0	9.180722891566266	2029.0	0.04819277108433735	2043.0	-0.42272727272727273	465.0	-0.026363636363636363	-29.0	-0.22551020408163266	221.0	1.5228925459916563E12	1.522892546008E12	1671.875	54784.0	0.0	0.0	
-1.129770992366412	-58.0	0.8854961832061068	74.0	1.3282442748091603	-87.0	0.1927710843373494	1284.0	9.19277108433735	2031.0	0.04819277108433735	2043.0	-0.4263636363636364	469.0	-0.012727272727272728	-14.0	-0.22040816326530616	216.0	1.5228925459955625E12	1.52289254601E12	1675.78125	54912.0	0.0	0.0	
-1.0076335877862594	-37.0	0.564885496183206	66.0	1.2671755725190839	-83.0	0.21686746987951808	1284.0	9.19277108433735	2029.0	0.060240963855421686	2042.0	-0.4263636363636364	469.0	-0.012727272727272728	-14.0	-0.22040816326530616	216.0	1.5228925459994688E12	1.522892546011E12	1679.6875	55040.0	0.0	0.0	
-0.9312977099236641	-52.0	0.7938931297709924	61.0	1.282442748091603	-84.0	0.21686746987951808	1284.0	9.19277108433735	2029.0	0.07228915662650603	2041.0	-0.4318181818181818	475.0	-0.03272727272727273	-36.0	-0.22755102040816327	223.0	1.522892546003375E12	1.522892546013E12	1683.59375	55168.0	0.0	0.0	
-1.0534351145038168	-32.0	0.48854961832061067	69.0	1.3587786259541985	-89.0	0.20481927710843376	1287.0	9.156626506024097	2030.0	0.07228915662650603	2041.0	-0.42454545454545456	467.0	-0.024545454545454544	-27.0	-0.22448979591836737	220.0	1.5228925460072813E12	1.522892546014E12	1687.5	55296.0	0.0	0.0	
-0.732824427480916	-27.0	0.41221374045801523	48.0	1.2366412213740459	-81.0	0.1927710843373494	1284.0	9.19277108433735	2031.0	0.07228915662650603	2041.0	-0.41909090909090907	461.0	-0.014545454545454545	-16.0	-0.21938775510204084	215.0	1.5228925460111875E12	1.522892546025E12	1691.40625	55424.0	0.0	0.0	
-1.0076335877862594	-44.0	0.6717557251908397	66.0	1.2519083969465647	-82.0	0.21686746987951808	1283.0	9.204819277108435	2029.0	0.060240963855421686	2042.0	-0.4172727272727273	459.0	0.006363636363636364	7.0	-0.2163265306122449	212.0	1.5228925460150938E12	1.522892546026E12	1695.3125	55552.0	0.0	0.0	
-0.8549618320610687	-36.0	0.549618320610687	56.0	1.4045801526717556	-92.0	0.1927710843373494	1285.0	9.180722891566266	2031.0	0.060240963855421686	2042.0	-0.4254545454545455	468.0	-0.017272727272727273	-19.0	-0.21836734693877552	214.0	1.522892546019E12	1.522892546027E12	1699.21875	55680.0	0.0	0.0	
-0.9618320610687022	-50.0	0.7633587786259541	63.0	1.3893129770992365	-91.0	0.16867469879518074	1284.0	9.19277108433735	2033.0	0.04819277108433735	2043.0	-0.4218181818181818	464.0	-0.019090909090909092	-21.0	-0.22755102040816327	223.0	1.5228925460229063E12	1.522892546036E12	1703.125	55808.0	0.0	0.0	
-0.916030534351145	-32.0	0.48854961832061067	60.0	1.1908396946564885	-78.0	0.14457831325301207	1284.0	9.19277108433735	2035.0	0.024096385542168676	2045.0	-0.4218181818181818	464.0	-0.019090909090909092	-21.0	-0.22755102040816327	223.0	1.5228925460268125E12	1.522892546037E12	1707.03125	55936.0	0.0	0.0	
-0.9923664122137404	-34.0	0.5190839694656488	65.0	1.4045801526717556	-92.0	0.18072289156626506	1284.0	9.19277108433735	2032.0	0.03614457831325302	2044.0	-0.41909090909090907	461.0	-0.008181818181818182	-9.0	-0.22551020408163266	221.0	1.5228925460307188E12	1.522892546039E12	1710.9375	56064.0	0.0	0.0	
-0.9923664122137404	-29.0	0.4427480916030534	65.0	1.3282442748091603	-87.0	0.1927710843373494	1285.0	9.180722891566266	2031.0	0.03614457831325302	2044.0	-0.42272727272727273	465.0	-0.026363636363636363	-29.0	-0.2285714285714286	224.0	1.522892546034625E12	1.52289254604E12	1714.84375	56192.0	0.0	0.0	
-0.9312977099236641	-23.0	0.3511450381679389	61.0	1.3893129770992365	-91.0	0.18072289156626506	1284.0	9.19277108433735	2032.0	0.060240963855421686	2042.0	-0.42818181818181816	471.0	-0.01818181818181818	-20.0	-0.22142857142857145	217.0	1.5228925460385313E12	1.522892546041E12	1718.75	56320.0	0.0	0.0	
-0.9923664122137404	-45.0	0.6870229007633587	65.0	1.2671755725190839	-83.0	0.18072289156626506	1284.0	9.19277108433735	2032.0	0.04819277108433735	2043.0	-0.4263636363636364	469.0	-0.03090909090909091	-34.0	-0.22551020408163266	221.0	1.5228925460424375E12	1.522892546043E12	1722.65625	56448.0	0.0	0.0	
-1.1908396946564885	-34.0	0.5190839694656488	78.0	1.5419847328244274	-101.0	0.18072289156626506	1286.0	9.168674698795181	2032.0	0.03614457831325302	2044.0	-0.4218181818181818	464.0	-0.03090909090909091	-34.0	-0.22244897959183677	218.0	1.5228925460463438E12	1.522892546062E12	1726.5625	56576.0	0.0	0.0	
-1.083969465648855	-30.0	0.4580152671755725	71.0	1.5877862595419847	-104.0	0.20481927710843376	1286.0	9.168674698795181	2030.0	0.03614457831325302	2044.0	-0.4218181818181818	464.0	-0.02909090909090909	-32.0	-0.22244897959183677	218.0	1.52289254605025E12	1.522892546064E12	1730.46875	56704.0	0.0	0.0	
-0.916030534351145	-35.0	0.5343511450381679	60.0	1.5114503816793892	-99.0	0.24096385542168675	1284.0	9.19277108433735	2027.0	0.03614457831325302	2044.0	-0.42	462.0	-0.02909090909090909	-32.0	-0.22346938775510206	219.0	1.5228925460541563E12	1.522892546065E12	1734.375	56832.0	0.0	0.0	
-0.916030534351145	-30.0	0.4580152671755725	60.0	1.5725190839694656	-103.0	0.26506024096385544	1284.0	9.19277108433735	2025.0	0.024096385542168676	2045.0	-0.4309090909090909	474.0	-0.024545454545454544	-27.0	-0.22244897959183677	218.0	1.5228925460580625E12	1.522892546066E12	1738.28125	56960.0	0.0	0.0	
-0.7480916030534351	-22.0	0.33587786259541985	49.0	1.450381679389313	-95.0	0.24096385542168675	1283.0	9.204819277108435	2027.0	0.012048192771084338	2046.0	-0.42272727272727273	465.0	-0.02727272727272727	-30.0	-0.22755102040816327	223.0	1.5228925460619688E12	1.522892546074E12	1742.1875	57088.0	0.0	0.0	
-0.916030534351145	-45.0	0.6870229007633587	60.0	1.3893129770992365	-91.0	0.1927710843373494	1284.0	9.19277108433735	2031.0	0.024096385542168676	2045.0	-0.4309090909090909	474.0	-0.016363636363636365	-18.0	-0.21836734693877552	214.0	1.522892546065875E12	1.522892546075E12	1746.09375	57216.0	0.0	0.0	
-0.8396946564885496	-38.0	0.5801526717557252	55.0	1.450381679389313	-95.0	0.2530120481927711	1284.0	9.19277108433735	2026.0	0.012048192771084338	2046.0	-0.4218181818181818	464.0	-0.03	-33.0	-0.22448979591836737	220.0	1.5228925460697813E12	1.522892546077E12	1750.0	57344.0	0.0	0.0	
-0.7786259541984732	-28.0	0.42748091603053434	51.0	1.3740458015267174	-90.0	0.26506024096385544	1284.0	9.19277108433735	2025.0	0.0	2047.0	-0.4263636363636364	469.0	-0.022727272727272728	-25.0	-0.22040816326530616	216.0	1.5228925460736875E12	1.522892546082E12	1753.90625	57472.0	0.0	0.0	
-0.8244274809160305	-38.0	0.5801526717557252	54.0	1.465648854961832	-96.0	0.2530120481927711	1284.0	9.19277108433735	2026.0	0.012048192771084338	2046.0	-0.4263636363636364	469.0	-0.022727272727272728	-25.0	-0.22040816326530616	216.0	1.5228925460775938E12	1.522892546082E12	1757.8125	57600.0	0.0	0.0	
-0.8702290076335878	-48.0	0.732824427480916	57.0	1.282442748091603	-84.0	0.22891566265060243	1285.0	9.180722891566266	2028.0	0.012048192771084338	2046.0	-0.4309090909090909	474.0	-0.02090909090909091	-23.0	-0.22040816326530616	216.0	1.5228925460815E12	1.522892546083E12	1761.71875	57728.0	0.0	0.0	
-0.8091603053435115	-33.0	0.5038167938931297	53.0	1.2671755725190839	-83.0	0.1927710843373494	1284.0	9.19277108433735	2031.0	0.0	2047.0	-0.4209090909090909	463.0	-0.03	-33.0	-0.22653061224489798	222.0	1.5228925460854063E12	1.522892546097E12	1765.625	57856.0	0.0	0.0	
-0.5801526717557252	-56.0	0.8549618320610687	38.0	1.4198473282442747	-93.0	0.1566265060240964	1283.0	9.204819277108435	2034.0	-0.012048192771084338	2048.0	-0.42272727272727273	465.0	-0.02090909090909091	-23.0	-0.21836734693877552	214.0	1.5228925460893125E12	1.522892546097E12	1769.53125	57984.0	0.0	0.0	
-0.9465648854961831	-55.0	0.8396946564885496	62.0	1.2061068702290076	-79.0	0.13253012048192772	1283.0	9.204819277108435	2036.0	-0.012048192771084338	2048.0	-0.4309090909090909	474.0	-0.01818181818181818	-20.0	-0.22244897959183677	218.0	1.5228925460932188E12	1.522892546098E12	1773.4375	58112.0	0.0	0.0	
-0.8244274809160305	-56.0	0.8549618320610687	54.0	1.3129770992366412	-86.0	0.1566265060240964	1283.0	9.204819277108435	2034.0	-0.024096385542168676	2049.0	-0.43	473.0	-0.03272727272727273	-36.0	-0.22755102040816327	223.0	1.522892546097125E12	1.522892546107E12	1777.34375	58240.0	0.0	0.0	
-0.732824427480916	-45.0	0.6870229007633587	48.0	1.3587786259541985	-89.0	0.13253012048192772	1283.0	9.204819277108435	2036.0	-0.012048192771084338	2048.0	-0.42272727272727273	465.0	-0.019090909090909092	-21.0	-0.22755102040816327	223.0	1.5228925461010313E12	1.522892546112E12	1781.25	58368.0	0.0	0.0	
-0.9007633587786259	-50.0	0.7633587786259541	59.0	1.3740458015267174	-90.0	0.13253012048192772	1285.0	9.180722891566266	2036.0	0.0	2047.0	-0.42272727272727273	465.0	-0.019090909090909092	-21.0	-0.22755102040816327	223.0	1.5228925461049375E12	1.522892546113E12	1785.15625	58496.0	0.0	0.0	
-0.7786259541984732	-50.0	0.7633587786259541	51.0	1.4045801526717556	-92.0	0.13253012048192772	1286.0	9.168674698795181	2036.0	0.012048192771084338	2046.0	-0.4263636363636364	469.0	-0.019090909090909092	-21.0	-0.21938775510204084	215.0	1.5228925461088438E12	1.522892546143E12	1789.0625	58624.0	0.0	0.0	
-0.8549618320610687	-43.0	0.6564885496183206	56.0	1.5419847328244274	-101.0	0.13253012048192772	1282.0	9.216867469879519	2036.0	0.060240963855421686	2042.0	-0.42818181818181816	471.0	-0.022727272727272728	-25.0	-0.2295918367346939	225.0	1.52289254611275E12	1.522892546143E12	1792.96875	58752.0	0.0	0.0	
-0.9770992366412213	-39.0	0.5954198473282443	64.0	1.3587786259541985	-89.0	0.1566265060240964	1285.0	9.180722891566266	2034.0	0.04819277108433735	2043.0	-0.42272727272727273	465.0	-0.019090909090909092	-21.0	-0.22142857142857145	217.0	1.5228925461166563E12	1.522892546144E12	1796.875	58880.0	0.0	0.0	
-0.8854961832061068	-44.0	0.6717557251908397	58.0	1.282442748091603	-84.0	0.14457831325301207	1285.0	9.180722891566266	2035.0	0.07228915662650603	2041.0	-0.41909090909090907	461.0	9.090909090909091E-4	1.0	-0.22244897959183677	218.0	1.5228925461205625E12	1.522892546147E12	1800.78125	59008.0	0.0	0.0	
-0.7786259541984732	-30.0	0.4580152671755725	51.0	1.297709923664122	-85.0	0.13253012048192772	1283.0	9.204819277108435	2036.0	0.060240963855421686	2042.0	-0.42272727272727273	465.0	-0.00909090909090909	-10.0	-0.22653061224489798	222.0	1.5228925461244688E12	1.522892546148E12	1804.6875	59136.0	0.0	0.0	
-0.7175572519083969	-32.0	0.48854961832061067	47.0	1.3893129770992365	-91.0	0.0963855421686747	1284.0	9.19277108433735	2039.0	0.04819277108433735	2043.0	-0.42272727272727273	465.0	-0.008181818181818182	-9.0	-0.22244897959183677	218.0	1.522892546128375E12	1.522892546149E12	1808.59375	59264.0	0.0	0.0	
-0.6870229007633587	-34.0	0.5190839694656488	45.0	1.4198473282442747	-93.0	0.13253012048192772	1284.0	9.19277108433735	2036.0	0.04819277108433735	2043.0	-0.42272727272727273	465.0	-0.008181818181818182	-9.0	-0.22244897959183677	218.0	1.5228925461322813E12	1.522892546152E12	1812.5	59392.0	0.0	0.0	
-0.8244274809160305	-41.0	0.6259541984732824	54.0	1.5267175572519083	-100.0	0.1566265060240964	1284.0	9.19277108433735	2034.0	0.04819277108433735	2043.0	-0.4263636363636364	469.0	-0.023636363636363636	-26.0	-0.22448979591836737	220.0	1.5228925461361875E12	1.522892546152E12	1816.40625	59520.0	0.0	0.0	
-0.7175572519083969	-27.0	0.41221374045801523	47.0	1.6946564885496183	-111.0	0.18072289156626506	1285.0	9.180722891566266	2032.0	0.04819277108433735	2043.0	-0.4218181818181818	464.0	-0.024545454545454544	-27.0	-0.22551020408163266	221.0	1.5228925461400938E12	1.522892546154E12	1820.3125	59648.0	0.0	0.0	
-0.6412213740458015	-37.0	0.564885496183206	42.0	1.3740458015267174	-90.0	0.16867469879518074	1286.0	9.168674698795181	2033.0	0.07228915662650603	2041.0	-0.42272727272727273	465.0	-0.008181818181818182	-9.0	-0.22142857142857145	217.0	1.522892546144E12	1.522892546156E12	1824.21875	59776.0	0.0	0.0	
-0.5954198473282443	-17.0	0.2595419847328244	39.0	1.618320610687023	-106.0	0.1927710843373494	1287.0	9.156626506024097	2031.0	0.060240963855421686	2042.0	-0.42727272727272725	470.0	-0.022727272727272728	-25.0	-0.22346938775510206	219.0	1.5228925461479063E12	1.522892546157E12	1828.125	59904.0	0.0	0.0	
-0.5343511450381679	-23.0	0.3511450381679389	35.0	1.6335877862595418	-107.0	0.21686746987951808	1285.0	9.180722891566266	2029.0	0.060240963855421686	2042.0	-0.4290909090909091	472.0	-0.03090909090909091	-34.0	-0.22653061224489798	222.0	1.5228925461518125E12	1.522892546158E12	1832.03125	60032.0	0.0	0.0	
-0.7175572519083969	-35.0	0.5343511450381679	47.0	1.7251908396946565	-113.0	0.22891566265060243	1284.0	9.19277108433735	2028.0	0.04819277108433735	2043.0	-0.4163636363636364	458.0	-0.022727272727272728	-25.0	-0.22346938775510206	219.0	1.5228925461557188E12	1.522892546164E12	1835.9375	60160.0	0.0	0.0	
-0.8549618320610687	-39.0	0.5954198473282443	56.0	1.5114503816793892	-99.0	0.1927710843373494	1283.0	9.204819277108435	2031.0	0.024096385542168676	2045.0	-0.4163636363636364	458.0	-0.022727272727272728	-25.0	-0.22346938775510206	219.0	1.522892546159625E12	1.522892546165E12	1839.84375	60288.0	0.0	0.0	
-0.5954198473282443	-25.0	0.38167938931297707	39.0	1.5725190839694656	-103.0	0.1927710843373494	1283.0	9.204819277108435	2031.0	0.024096385542168676	2045.0	-0.42	462.0	-0.006363636363636364	-7.0	-0.2163265306122449	212.0	1.5228925461635313E12	1.522892546167E12	1843.75	60416.0	0.0	0.0	
-0.5954198473282443	-35.0	0.5343511450381679	39.0	1.7404580152671756	-114.0	0.18072289156626506	1283.0	9.204819277108435	2032.0	-0.024096385542168676	2049.0	-0.43	473.0	-0.02909090909090909	-32.0	-0.22755102040816327	223.0	1.5228925461674375E12	1.522892546179E12	1847.65625	60544.0	0.0	0.0	
-0.7633587786259541	-42.0	0.6412213740458015	50.0	1.7099236641221374	-112.0	0.22891566265060243	1284.0	9.19277108433735	2028.0	-0.03614457831325302	2050.0	-0.42818181818181816	471.0	-0.019090909090909092	-21.0	-0.22244897959183677	218.0	1.5228925461713438E12	1.52289254618E12	1851.5625	60672.0	0.0	0.0	
-0.5954198473282443	-52.0	0.7938931297709924	39.0	1.6030534351145038	-105.0	0.24096385542168675	1284.0	9.19277108433735	2027.0	-0.04819277108433735	2051.0	-0.4290909090909091	472.0	-0.022727272727272728	-25.0	-0.22142857142857145	217.0	1.52289254617525E12	1.522892546181E12	1855.46875	60800.0	0.0	0.0	
-0.6259541984732824	-38.0	0.5801526717557252	41.0	1.3435114503816794	-88.0	0.24096385542168675	1284.0	9.19277108433735	2027.0	-0.04819277108433735	2051.0	-0.43	473.0	-0.01090909090909091	-12.0	-0.21938775510204084	215.0	1.5228925461791563E12	1.522892546187E12	1859.375	60928.0	0.0	0.0	
-0.5190839694656488	-46.0	0.7022900763358778	34.0	1.5114503816793892	-99.0	0.24096385542168675	1283.0	9.204819277108435	2027.0	-0.060240963855421686	2052.0	-0.42272727272727273	465.0	-0.01818181818181818	-20.0	-0.22244897959183677	218.0	1.5228925461830625E12	1.522892546188E12	1863.28125	61056.0	0.0	0.0	
-0.5954198473282443	-49.0	0.7480916030534351	39.0	1.3587786259541985	-89.0	0.20481927710843376	1283.0	9.204819277108435	2030.0	-0.060240963855421686	2052.0	-0.42272727272727273	465.0	-0.01818181818181818	-20.0	-0.22244897959183677	218.0	1.5228925461869688E12	1.52289254619E12	1867.1875	61184.0	0.0	0.0	
-0.7022900763358778	-35.0	0.5343511450381679	46.0	1.4045801526717556	-92.0	0.18072289156626506	1284.0	9.19277108433735	2032.0	-0.04819277108433735	2051.0	-0.4290909090909091	472.0	-0.02727272727272727	-30.0	-0.22244897959183677	218.0	1.522892546190875E12	1.522892546203E12	1871.09375	61312.0	0.0	0.0	
-0.5343511450381679	-52.0	0.7938931297709924	35.0	1.3435114503816794	-88.0	0.16867469879518074	1283.0	9.204819277108435	2033.0	-0.012048192771084338	2048.0	-0.42727272727272725	470.0	-0.011818181818181818	-13.0	-0.21938775510204084	215.0	1.5228925461947813E12	1.522892546204E12	1875.0	61440.0	0.0	0.0	
-0.9007633587786259	-47.0	0.7175572519083969	59.0	1.5877862595419847	-104.0	0.13253012048192772	1284.0	9.19277108433735	2036.0	-0.03614457831325302	2050.0	-0.4254545454545455	468.0	-0.013636363636363636	-15.0	-0.22448979591836737	220.0	1.5228925461986875E12	1.522892546205E12	1878.90625	61568.0	0.0	0.0	
-0.5343511450381679	-30.0	0.4580152671755725	35.0	1.4198473282442747	-93.0	0.14457831325301207	1283.0	9.204819277108435	2035.0	-0.024096385542168676	2049.0	-0.4209090909090909	463.0	-0.014545454545454545	-16.0	-0.22551020408163266	221.0	1.5228925462025938E12	1.522892546211E12	1882.8125	61696.0	0.0	0.0	
-0.6717557251908397	-40.0	0.6106870229007634	44.0	1.4045801526717556	-92.0	0.13253012048192772	1286.0	9.168674698795181	2036.0	-0.012048192771084338	2048.0	-0.4263636363636364	469.0	-0.02909090909090909	-32.0	-0.2285714285714286	224.0	1.5228925462065E12	1.522892546213E12	1886.71875	61824.0	0.0	0.0	
-0.47328244274809156	-39.0	0.5954198473282443	31.0	1.7862595419847327	-117.0	0.16867469879518074	1284.0	9.19277108433735	2033.0	-0.024096385542168676	2049.0	-0.4263636363636364	469.0	-0.02909090909090909	-32.0	-0.2285714285714286	224.0	1.5228925462104063E12	1.522892546214E12	1890.625	61952.0	0.0	0.0	
-0.5801526717557252	-43.0	0.6564885496183206	38.0	1.450381679389313	-95.0	0.20481927710843376	1285.0	9.180722891566266	2030.0	-0.024096385542168676	2049.0	-0.42272727272727273	465.0	-0.019090909090909092	-21.0	-0.22755102040816327	223.0	1.5228925462143125E12	1.522892546229E12	1894.53125	62080.0	0.0	0.0	
-0.7786259541984732	-34.0	0.5190839694656488	51.0	1.450381679389313	-95.0	0.18072289156626506	1285.0	9.180722891566266	2032.0	-0.012048192771084338	2048.0	-0.42454545454545456	467.0	-0.01	-11.0	-0.2142857142857143	210.0	1.5228925462182188E12	1.522892546231E12	1898.4375	62208.0	0.0	0.0	
-0.8244274809160305	-35.0	0.5343511450381679	54.0	1.5114503816793892	-99.0	0.1566265060240964	1285.0	9.180722891566266	2034.0	0.0	2047.0	-0.4209090909090909	463.0	-0.028181818181818183	-31.0	-0.22551020408163266	221.0	1.522892546222125E12	1.522892546233E12	1902.34375	62336.0	0.0	0.0	
-0.7633587786259541	-35.0	0.5343511450381679	50.0	1.3435114503816794	-88.0	0.20481927710843376	1285.0	9.180722891566266	2030.0	0.012048192771084338	2046.0	-0.41545454545454547	457.0	-0.028181818181818183	-31.0	-0.22346938775510206	219.0	1.5228925462260313E12	1.52289254624E12	1906.25	62464.0	0.0	0.0	
-0.5343511450381679	-39.0	0.5954198473282443	35.0	1.7251908396946565	-113.0	0.20481927710843376	1284.0	9.19277108433735	2030.0	0.0	2047.0	-0.4209090909090909	463.0	-0.025454545454545455	-28.0	-0.22244897959183677	218.0	1.5228925462299375E12	1.522892546242E12	1910.15625	62592.0	0.0	0.0	
-0.7938931297709924	-44.0	0.6717557251908397	52.0	1.6030534351145038	-105.0	0.21686746987951808	1285.0	9.180722891566266	2029.0	-0.024096385542168676	2049.0	-0.42272727272727273	465.0	-0.023636363636363636	-26.0	-0.22448979591836737	220.0	1.5228925462338438E12	1.522892546243E12	1914.0625	62720.0	0.0	0.0	
-0.48854961832061067	-44.0	0.6717557251908397	32.0	1.7251908396946565	-113.0	0.24096385542168675	1284.0	9.19277108433735	2027.0	-0.060240963855421686	2052.0	-0.42272727272727273	465.0	-0.023636363636363636	-26.0	-0.22448979591836737	220.0	1.52289254623775E12	1.522892546247E12	1917.96875	62848.0	0.0	0.0	
-0.549618320610687	-46.0	0.7022900763358778	36.0	1.4809160305343512	-97.0	0.2530120481927711	1284.0	9.19277108433735	2026.0	-0.07228915662650603	2053.0	-0.42454545454545456	467.0	-0.016363636363636365	-18.0	-0.22346938775510206	219.0	1.5228925462416563E12	1.52289254625E12	1921.875	62976.0	0.0	0.0	
-0.5038167938931297	-45.0	0.6870229007633587	33.0	1.66412213740458	-109.0	0.2530120481927711	1283.0	9.204819277108435	2026.0	-0.0963855421686747	2055.0	-0.41818181818181815	460.0	-0.01090909090909091	-12.0	-0.22448979591836737	220.0	1.5228925462455625E12	1.522892546252E12	1925.78125	63104.0	0.0	0.0	
-0.6564885496183206	-40.0	0.6106870229007634	43.0	1.7251908396946565	-113.0	0.27710843373493976	1284.0	9.19277108433735	2024.0	-0.12048192771084337	2057.0	-0.42272727272727273	465.0	-0.024545454545454544	-27.0	-0.22142857142857145	217.0	1.5228925462494688E12	1.522892546292E12	1929.6875	63232.0	0.0	0.0	
-0.9007633587786259	-44.0	0.6717557251908397	59.0	1.5267175572519083	-100.0	0.28915662650602414	1283.0	9.204819277108435	2023.0	-0.12048192771084337	2057.0	-0.4263636363636364	469.0	-0.01090909090909091	-12.0	-0.22142857142857145	217.0	1.522892546253375E12	1.522892546294E12	1933.59375	63360.0	0.0	0.0	
-0.8244274809160305	-49.0	0.7480916030534351	54.0	1.648854961832061	-108.0	0.27710843373493976	1285.0	9.180722891566266	2024.0	-0.10843373493975904	2056.0	-0.4318181818181818	475.0	-0.028181818181818183	-31.0	-0.22448979591836737	220.0	1.5228925462572813E12	1.522892546295E12	1937.5	63488.0	0.0	0.0	
-0.9312977099236641	-49.0	0.7480916030534351	61.0	1.4809160305343512	-97.0	0.2530120481927711	1284.0	9.19277108433735	2026.0	-0.0963855421686747	2055.0	-0.4263636363636364	469.0	-0.02	-22.0	-0.22244897959183677	218.0	1.5228925462611875E12	1.522892546297E12	1941.40625	63616.0	0.0	0.0	
-0.9312977099236641	-54.0	0.8244274809160305	61.0	1.450381679389313	-95.0	0.24096385542168675	1283.0	9.204819277108435	2027.0	-0.10843373493975904	2056.0	-0.4263636363636364	469.0	-0.02	-22.0	-0.22244897959183677	218.0	1.5228925462650938E12	1.522892546298E12	1945.3125	63744.0	0.0	0.0	
-0.7786259541984732	-48.0	0.732824427480916	51.0	1.4045801526717556	-92.0	0.22891566265060243	1282.0	9.216867469879519	2028.0	-0.0963855421686747	2055.0	-0.4254545454545455	468.0	-0.013636363636363636	-15.0	-0.22244897959183677	218.0	1.522892546269E12	1.5228925463E12	1949.21875	63872.0	0.0	0.0	
-0.8091603053435115	-47.0	0.7175572519083969	53.0	1.5114503816793892	-99.0	0.20481927710843376	1283.0	9.204819277108435	2030.0	-0.10843373493975904	2056.0	-0.4290909090909091	472.0	-0.02909090909090909	-32.0	-0.22448979591836737	220.0	1.5228925462729063E12	1.522892546301E12	1953.125	64000.0	0.0	0.0	
-0.9007633587786259	-51.0	0.7786259541984732	59.0	1.465648854961832	-96.0	0.18072289156626506	1284.0	9.19277108433735	2032.0	-0.0963855421686747	2055.0	-0.42454545454545456	467.0	-0.028181818181818183	-31.0	-0.22448979591836737	220.0	1.5228925462768125E12	1.522892546303E12	1957.03125	64128.0	0.0	0.0	
-1.0076335877862594	-55.0	0.8396946564885496	66.0	1.4809160305343512	-97.0	0.1566265060240964	1284.0	9.19277108433735	2034.0	-0.08433734939759037	2054.0	-0.4290909090909091	472.0	-0.014545454545454545	-16.0	-0.21938775510204084	215.0	1.5228925462807188E12	1.522892546304E12	1960.9375	64256.0	0.0	0.0	
-0.8702290076335878	-34.0	0.5190839694656488	57.0	1.4045801526717556	-92.0	0.16867469879518074	1285.0	9.180722891566266	2033.0	-0.07228915662650603	2053.0	-0.43	473.0	-0.028181818181818183	-31.0	-0.22551020408163266	221.0	1.522892546284625E12	1.522892546305E12	1964.84375	64384.0	0.0	0.0	
-0.8549618320610687	-38.0	0.5801526717557252	56.0	1.5572519083969465	-102.0	0.14457831325301207	1286.0	9.168674698795181	2035.0	-0.04819277108433735	2051.0	-0.4218181818181818	464.0	-0.02909090909090909	-32.0	-0.2306122448979592	226.0	1.5228925462885313E12	1.522892546306E12	1968.75	64512.0	0.0	0.0	
-0.9007633587786259	-43.0	0.6564885496183206	59.0	1.5877862595419847	-104.0	0.1566265060240964	1284.0	9.19277108433735	2034.0	-0.024096385542168676	2049.0	-0.4218181818181818	464.0	-0.02909090909090909	-32.0	-0.2306122448979592	226.0	1.5228925462924375E12	1.522892546308E12	1972.65625	64640.0	0.0	0.0	
-1.129770992366412	-55.0	0.8396946564885496	74.0	1.5572519083969465	-102.0	0.12048192771084337	1286.0	9.168674698795181	2037.0	-0.024096385542168676	2049.0	-0.42818181818181816	471.0	-0.01818181818181818	-20.0	-0.22142857142857145	217.0	1.5228925462963438E12	1.522892546309E12	1976.5625	64768.0	0.0	0.0	
-0.9312977099236641	-19.0	0.2900763358778626	61.0	1.6335877862595418	-107.0	0.0963855421686747	1286.0	9.168674698795181	2039.0	0.0	2047.0	-0.43	473.0	-0.03272727272727273	-36.0	-0.22448979591836737	220.0	1.52289254630025E12	1.52289254631E12	1980.46875	64896.0	0.0	0.0	
-0.8396946564885496	-36.0	0.549618320610687	55.0	1.7099236641221374	-112.0	0.12048192771084337	1286.0	9.168674698795181	2037.0	0.0	2047.0	-0.42363636363636364	466.0	-0.028181818181818183	-31.0	-0.22653061224489798	222.0	1.5228925463041563E12	1.522892546312E12	1984.375	65024.0	0.0	0.0	
-0.9465648854961831	-30.0	0.4580152671755725	62.0	1.7404580152671756	-114.0	0.16867469879518074	1284.0	9.19277108433735	2033.0	0.012048192771084338	2046.0	-0.42	462.0	-0.03090909090909091	-34.0	-0.22040816326530616	216.0	1.5228925463080625E12	1.52289254632E12	1988.28125	65152.0	0.0	0.0	
-1.1603053435114503	-29.0	0.4427480916030534	76.0	1.8473282442748091	-121.0	0.20481927710843376	1285.0	9.180722891566266	2030.0	0.024096385542168676	2045.0	-0.42	462.0	-0.01090909090909091	-12.0	-0.22551020408163266	221.0	1.5228925463119688E12	1.522892546324E12	1992.1875	65280.0	0.0	0.0	
-0.8854961832061068	-44.0	0.6717557251908397	58.0	1.648854961832061	-108.0	0.22891566265060243	1286.0	9.168674698795181	2028.0	0.024096385542168676	2045.0	-0.4263636363636364	469.0	-0.023636363636363636	-26.0	-0.21836734693877552	214.0	1.522892546315875E12	1.522892546325E12	1996.09375	65408.0	0.0	0.0	
-1.114503816793893	-25.0	0.38167938931297707	73.0	1.7099236641221374	-112.0	0.1927710843373494	1284.0	9.19277108433735	2031.0	0.0	2047.0	-0.4263636363636364	469.0	-0.023636363636363636	-26.0	-0.21836734693877552	214.0	1.5228925463197813E12	1.522892546327E12	2000.0	0.0	0.0	0.0	
-0.9923664122137404	-33.0	0.5038167938931297	65.0	1.7099236641221374	-112.0	0.22891566265060243	1284.0	9.19277108433735	2028.0	0.012048192771084338	2046.0	-0.43	473.0	-0.01818181818181818	-20.0	-0.22142857142857145	217.0	1.5228925463236875E12	1.522892546334E12	2003.90625	128.0	0.0	0.0	
-0.7786259541984732	-9.0	0.13740458015267176	51.0	1.8015267175572518	-118.0	0.27710843373493976	1284.0	9.19277108433735	2024.0	0.0	2047.0	-0.42727272727272725	470.0	-0.026363636363636363	-29.0	-0.22653061224489798	222.0	1.5228925463275938E12	1.522892546335E12	2007.8125	256.0	0.0	0.0	
-0.8244274809160305	-29.0	0.4427480916030534	54.0	1.5419847328244274	-101.0	0.3132530120481928	1284.0	9.19277108433735	2021.0	-0.024096385542168676	2049.0	-0.42454545454545456	467.0	-0.028181818181818183	-31.0	-0.22653061224489798	222.0	1.5228925463315E12	1.522892546345E12	2011.71875	384.0	0.0	0.0	
-1.0229007633587786	-28.0	0.42748091603053434	67.0	1.66412213740458	-109.0	0.28915662650602414	1282.0	9.216867469879519	2023.0	-0.03614457831325302	2050.0	-0.4209090909090909	463.0	-0.015454545454545455	-17.0	-0.22142857142857145	217.0	1.5228925463354063E12	1.522892546354E12	2015.625	512.0	0.0	0.0	
-0.8854961832061068	-45.0	0.6870229007633587	58.0	1.7862595419847327	-117.0	0.28915662650602414	1283.0	9.204819277108435	2023.0	-0.04819277108433735	2051.0	-0.43	473.0	-0.03090909090909091	-34.0	-0.22755102040816327	223.0	1.5228925463393125E12	1.522892546355E12	2019.53125	640.0	0.0	0.0	
-0.8854961832061068	-54.0	0.8244274809160305	58.0	1.6946564885496183	-111.0	0.2530120481927711	1282.0	9.216867469879519	2026.0	-0.07228915662650603	2053.0	-0.42272727272727273	465.0	-0.01818181818181818	-20.0	-0.22551020408163266	221.0	1.5228925463432188E12	1.522892546356E12	2023.4375	768.0	0.0	0.0	
-1.0687022900763359	-43.0	0.6564885496183206	70.0	1.5572519083969465	-102.0	0.2530120481927711	1283.0	9.204819277108435	2026.0	-0.07228915662650603	2053.0	-0.42272727272727273	465.0	-0.01818181818181818	-20.0	-0.22551020408163266	221.0	1.522892546347125E12	1.522892546365E12	2027.34375	896.0	0.0	0.0	
-0.9923664122137404	-32.0	0.48854961832061067	65.0	1.648854961832061	-108.0	0.28915662650602414	1284.0	9.19277108433735	2023.0	-0.060240963855421686	2052.0	-0.42	462.0	-0.024545454545454544	-27.0	-0.22346938775510206	219.0	1.5228925463510313E12	1.522892546366E12	2031.25	1024.0	0.0	0.0	
-0.9618320610687022	-45.0	0.6870229007633587	63.0	1.5877862595419847	-104.0	0.28915662650602414	1284.0	9.19277108433735	2023.0	-0.04819277108433735	2051.0	-0.4254545454545455	468.0	-0.02181818181818182	-24.0	-0.22551020408163266	221.0	1.5228925463549375E12	1.522892546368E12	2035.15625	1152.0	0.0	0.0	
-0.8396946564885496	-40.0	0.6106870229007634	55.0	1.4809160305343512	-97.0	0.26506024096385544	1285.0	9.180722891566266	2025.0	-0.04819277108433735	2051.0	-0.4218181818181818	464.0	-0.023636363636363636	-26.0	-0.22040816326530616	216.0	1.5228925463588438E12	1.52289254638E12	2039.0625	1280.0	0.0	0.0	
-0.9618320610687022	-41.0	0.6259541984732824	63.0	1.4198473282442747	-93.0	0.26506024096385544	1282.0	9.216867469879519	2025.0	-0.04819277108433735	2051.0	-0.4318181818181818	475.0	-0.02	-22.0	-0.21938775510204084	215.0	1.52289254636275E12	1.522892546381E12	2042.96875	1408.0	0.0	0.0	
-1.1755725190839694	-40.0	0.6106870229007634	77.0	1.4961832061068703	-98.0	0.24096385542168675	1283.0	9.204819277108435	2027.0	-0.04819277108433735	2051.0	-0.42454545454545456	467.0	-0.019090909090909092	-21.0	-0.21836734693877552	214.0	1.5228925463666563E12	1.522892546382E12	2046.875	1536.0	0.0	0.0	
-1.0229007633587786	-38.0	0.5801526717557252	67.0	1.465648854961832	-96.0	0.20481927710843376	1283.0	9.204819277108435	2030.0	-0.024096385542168676	2049.0	-0.42454545454545456	467.0	-0.012727272727272728	-14.0	-0.21836734693877552	214.0	1.5228925463705625E12	1.522892546386E12	2050.78125	1664.0	0.0	0.0	
-0.9465648854961831	-46.0	0.7022900763358778	62.0	1.5114503816793892	-99.0	0.20481927710843376	1283.0	9.204819277108435	2030.0	-0.024096385542168676	2049.0	-0.41909090909090907	461.0	-0.012727272727272728	-14.0	-0.22244897959183677	218.0	1.5228925463744688E12	1.522892546387E12	2054.6875	1792.0	0.0	0.0	
-0.9923664122137404	-38.0	0.5801526717557252	65.0	1.450381679389313	-95.0	0.18072289156626506	1285.0	9.180722891566266	2032.0	0.012048192771084338	2046.0	-0.43	473.0	-0.02090909090909091	-23.0	-0.21836734693877552	214.0	1.522892546378375E12	1.522892546388E12	2058.59375	1920.0	0.0	0.0	
-1.0076335877862594	-28.0	0.42748091603053434	66.0	1.618320610687023	-106.0	0.20481927710843376	1286.0	9.168674698795181	2030.0	0.012048192771084338	2046.0	-0.42727272727272725	470.0	-0.03090909090909091	-34.0	-0.22448979591836737	220.0	1.5228925463822813E12	1.522892546393E12	2062.5	2048.0	0.0	0.0	
-0.9465648854961831	-42.0	0.6412213740458015	62.0	1.66412213740458	-109.0	0.20481927710843376	1286.0	9.168674698795181	2030.0	0.012048192771084338	2046.0	-0.42272727272727273	465.0	-0.013636363636363636	-15.0	-0.22142857142857145	217.0	1.5228925463861875E12	1.522892546394E12	2066.40625	2176.0	0.0	0.0	
-0.8549618320610687	-40.0	0.6106870229007634	56.0	1.618320610687023	-106.0	0.2530120481927711	1284.0	9.19277108433735	2026.0	0.024096385542168676	2045.0	-0.4318181818181818	475.0	-0.025454545454545455	-28.0	-0.22040816326530616	216.0	1.5228925463900938E12	1.522892546395E12	2070.3125	2304.0	0.0	0.0	
-0.9618320610687022	-37.0	0.564885496183206	63.0	1.450381679389313	-95.0	0.26506024096385544	1284.0	9.19277108433735	2025.0	0.012048192771084338	2046.0	-0.4263636363636364	469.0	-0.011818181818181818	-13.0	-0.2163265306122449	212.0	1.522892546394E12	1.522892546405E12	2074.21875	2432.0	0.0	0.0	
-1.0076335877862594	-41.0	0.6259541984732824	66.0	1.5114503816793892	-99.0	0.24096385542168675	1284.0	9.19277108433735	2027.0	0.0	2047.0	-0.4263636363636364	469.0	-0.011818181818181818	-13.0	-0.2163265306122449	212.0	1.5228925463979063E12	1.522892546406E12	2078.125	2560.0	0.0	0.0	
-0.9923664122137404	-31.0	0.47328244274809156	65.0	1.465648854961832	-96.0	0.20481927710843376	1286.0	9.168674698795181	2030.0	-0.024096385542168676	2049.0	-0.42454545454545456	467.0	-0.012727272727272728	-14.0	-0.22244897959183677	218.0	1.5228925464018125E12	1.522892546407E12	2082.03125	2688.0	0.0	0.0	
-0.9312977099236641	-35.0	0.5343511450381679	61.0	1.5267175572519083	-100.0	0.20481927710843376	1285.0	9.180722891566266	2030.0	-0.012048192771084338	2048.0	-0.4290909090909091	472.0	-0.02181818181818182	-24.0	-0.21938775510204084	215.0	1.5228925464057188E12	1.522892546444E12	2085.9375	2816.0	0.0	0.0	
-0.9770992366412213	-38.0	0.5801526717557252	64.0	1.618320610687023	-106.0	0.2530120481927711	1284.0	9.19277108433735	2026.0	-0.03614457831325302	2050.0	-0.4309090909090909	474.0	-0.03272727272727273	-36.0	-0.22653061224489798	222.0	1.522892546409625E12	1.522892546445E12	2089.84375	2944.0	0.0	0.0	
-1.0381679389312977	-30.0	0.4580152671755725	68.0	1.5877862595419847	-104.0	0.3132530120481928	1285.0	9.180722891566266	2021.0	-0.03614457831325302	2050.0	-0.42454545454545456	467.0	-0.013636363636363636	-15.0	-0.22755102040816327	223.0	1.5228925464135313E12	1.522892546445E12	2093.75	3072.0	0.0	0.0	
-1.129770992366412	-43.0	0.6564885496183206	74.0	1.4809160305343512	-97.0	0.3614457831325301	1284.0	9.19277108433735	2017.0	-0.024096385542168676	2049.0	-0.4290909090909091	472.0	-0.023636363636363636	-26.0	-0.21836734693877552	214.0	1.5228925464174375E12	1.522892546447E12	2097.65625	3200.0	0.0	0.0	
-1.0229007633587786	-42.0	0.6412213740458015	67.0	1.6793893129770991	-110.0	0.3855421686746988	1283.0	9.204819277108435	2015.0	-0.03614457831325302	2050.0	-0.42818181818181816	471.0	-0.026363636363636363	-29.0	-0.22653061224489798	222.0	1.5228925464213438E12	1.522892546448E12	2101.5625	3328.0	0.0	0.0	
-0.9618320610687022	-49.0	0.7480916030534351	63.0	1.450381679389313	-95.0	0.3855421686746988	1284.0	9.19277108433735	2015.0	-0.03614457831325302	2050.0	-0.42818181818181816	471.0	-0.026363636363636363	-29.0	-0.22653061224489798	222.0	1.52289254642525E12	1.52289254645E12	2105.46875	3456.0	0.0	0.0	
-1.1908396946564885	-46.0	0.7022900763358778	78.0	1.282442748091603	-84.0	0.3493975903614458	1283.0	9.204819277108435	2018.0	-0.024096385542168676	2049.0	-0.42363636363636364	466.0	-0.007272727272727273	-8.0	-0.21734693877551023	213.0	1.5228925464291563E12	1.522892546451E12	2109.375	3584.0	0.0	0.0	
-0.9312977099236641	-38.0	0.5801526717557252	61.0	1.1755725190839694	-77.0	0.30120481927710846	1283.0	9.204819277108435	2022.0	-0.060240963855421686	2052.0	-0.4309090909090909	474.0	-0.02909090909090909	-32.0	-0.22142857142857145	217.0	1.5228925464330625E12	1.522892546452E12	2113.28125	3712.0	0.0	0.0	
-1.083969465648855	-51.0	0.7786259541984732	71.0	1.1755725190839694	-77.0	0.2530120481927711	1284.0	9.19277108433735	2026.0	-0.03614457831325302	2050.0	-0.4209090909090909	463.0	-0.014545454545454545	-16.0	-0.22448979591836737	220.0	1.5228925464369688E12	1.522892546453E12	2117.1875	3840.0	0.0	0.0	
-0.8396946564885496	-55.0	0.8396946564885496	55.0	1.4351145038167938	-94.0	0.21686746987951808	1283.0	9.204819277108435	2029.0	-0.012048192771084338	2048.0	-0.42454545454545456	467.0	-0.008181818181818182	-9.0	-0.21836734693877552	214.0	1.522892546440875E12	1.522892546454E12	2121.09375	3968.0	0.0	0.0	
-1.114503816793893	-36.0	0.549618320610687	73.0	1.1755725190839694	-77.0	0.21686746987951808	1285.0	9.180722891566266	2029.0	0.0	2047.0	-0.4318181818181818	475.0	-0.028181818181818183	-31.0	-0.22142857142857145	217.0	1.5228925464447813E12	1.522892546455E12	2125.0	4096.0	0.0	0.0	
-0.9618320610687022	-45.0	0.6870229007633587	63.0	1.3129770992366412	-86.0	0.2530120481927711	1286.0	9.168674698795181	2026.0	0.03614457831325302	2044.0	-0.42363636363636364	466.0	-0.019090909090909092	-21.0	-0.22551020408163266	221.0	1.5228925464486875E12	1.522892546456E12	2128.90625	4224.0	0.0	0.0	
-1.0687022900763359	-41.0	0.6259541984732824	70.0	1.2213740458015268	-80.0	0.27710843373493976	1285.0	9.180722891566266	2024.0	0.04819277108433735	2043.0	-0.42363636363636364	466.0	-0.019090909090909092	-21.0	-0.22551020408163266	221.0	1.5228925464525938E12	1.522892546464E12	2132.8125	4352.0	0.0	0.0	
-0.9465648854961831	-41.0	0.6259541984732824	62.0	1.1603053435114503	-76.0	0.26506024096385544	1284.0	9.19277108433735	2025.0	0.060240963855421686	2042.0	-0.4254545454545455	468.0	-0.01090909090909091	-12.0	-0.22244897959183677	218.0	1.5228925464565E12	1.522892546465E12	2136.71875	4480.0	0.0	0.0	
-0.732824427480916	-55.0	0.8396946564885496	48.0	1.3129770992366412	-86.0	0.18072289156626506	1285.0	9.180722891566266	2032.0	0.07228915662650603	2041.0	-0.4218181818181818	464.0	-0.012727272727272728	-14.0	-0.22551020408163266	221.0	1.5228925464604063E12	1.522892546465E12	2140.625	4608.0	0.0	0.0	
-0.8091603053435115	-46.0	0.7022900763358778	53.0	1.114503816793893	-73.0	0.14457831325301207	1284.0	9.19277108433735	2035.0	0.07228915662650603	2041.0	-0.4209090909090909	463.0	-0.019090909090909092	-21.0	-0.22040816326530616	216.0	1.5228925464643125E12	1.522892546472E12	2144.53125	4736.0	0.0	0.0	
-0.8549618320610687	-53.0	0.8091603053435115	56.0	1.2519083969465647	-82.0	0.0963855421686747	1285.0	9.180722891566266	2039.0	0.08433734939759037	2040.0	-0.4254545454545455	468.0	-0.017272727272727273	-19.0	-0.22346938775510206	219.0	1.5228925464682188E12	1.522892546473E12	2148.4375	4864.0	0.0	0.0	
-0.9770992366412213	-39.0	0.5954198473282443	64.0	1.297709923664122	-85.0	0.08433734939759037	1284.0	9.19277108433735	2040.0	0.0963855421686747	2039.0	-0.42818181818181816	471.0	-0.02909090909090909	-32.0	-0.22346938775510206	219.0	1.522892546472125E12	1.522892546474E12	2152.34375	4992.0	0.0	0.0	
-0.7633587786259541	-23.0	0.3511450381679389	50.0	1.5114503816793892	-99.0	0.04819277108433735	1286.0	9.168674698795181	2043.0	0.0963855421686747	2039.0	-0.4218181818181818	464.0	-0.022727272727272728	-25.0	-0.22244897959183677	218.0	1.5228925464760313E12	1.52289254649E12	2156.25	5120.0	0.0	0.0	
-1.0687022900763359	-32.0	0.48854961832061067	70.0	1.4045801526717556	-92.0	0.04819277108433735	1287.0	9.156626506024097	2043.0	0.10843373493975904	2038.0	-0.4218181818181818	464.0	-0.022727272727272728	-25.0	-0.22244897959183677	218.0	1.5228925464799375E12	1.522892546499E12	2160.15625	5248.0	0.0	0.0	
-0.9007633587786259	-45.0	0.6870229007633587	59.0	1.6335877862595418	-107.0	0.0963855421686747	1287.0	9.156626506024097	2039.0	0.13253012048192772	2036.0	-0.42454545454545456	467.0	-0.014545454545454545	-16.0	-0.22244897959183677	218.0	1.5228925464838438E12	1.5228925465E12	2164.0625	5376.0	0.0	0.0	
-0.8549618320610687	-27.0	0.41221374045801523	56.0	1.4198473282442747	-93.0	0.14457831325301207	1285.0	9.180722891566266	2035.0	0.12048192771084337	2037.0	-0.4290909090909091	472.0	-0.02909090909090909	-32.0	-0.22346938775510206	219.0	1.52289254648775E12	1.522892546502E12	2167.96875	5504.0	0.0	0.0	
-0.8702290076335878	-32.0	0.48854961832061067	57.0	1.4809160305343512	-97.0	0.18072289156626506	1286.0	9.168674698795181	2032.0	0.0963855421686747	2039.0	-0.42363636363636364	466.0	-0.02727272727272727	-30.0	-0.22346938775510206	219.0	1.5228925464916563E12	1.522892546503E12	2171.875	5632.0	0.0	0.0	
-0.8244274809160305	-24.0	0.366412213740458	54.0	1.7404580152671756	-114.0	0.1927710843373494	1285.0	9.180722891566266	2031.0	0.08433734939759037	2040.0	-0.4263636363636364	469.0	-0.011818181818181818	-13.0	-0.22244897959183677	218.0	1.5228925464955625E12	1.522892546504E12	2175.78125	5760.0	0.0	0.0	
-0.6717557251908397	-30.0	0.4580152671755725	44.0	1.5267175572519083	-100.0	0.20481927710843376	1284.0	9.19277108433735	2030.0	0.07228915662650603	2041.0	-0.42818181818181816	471.0	-0.025454545454545455	-28.0	-0.21836734693877552	214.0	1.5228925464994688E12	1.52289254651E12	2179.6875	5888.0	0.0	0.0	
-0.6106870229007634	-25.0	0.38167938931297707	40.0	1.5267175572519083	-100.0	0.20481927710843376	1283.0	9.204819277108435	2030.0	0.07228915662650603	2041.0	-0.42454545454545456	467.0	-0.01818181818181818	-20.0	-0.21938775510204084	215.0	1.522892546503375E12	1.522892546511E12	2183.59375	6016.0	0.0	0.0	
-0.7022900763358778	-28.0	0.42748091603053434	46.0	1.7557251908396947	-115.0	0.22891566265060243	1285.0	9.180722891566266	2028.0	0.060240963855421686	2042.0	-0.42454545454545456	467.0	-0.01818181818181818	-20.0	-0.21938775510204084	215.0	1.5228925465072813E12	1.522892546512E12	2187.5	6144.0	0.0	0.0	
-0.7022900763358778	-36.0	0.549618320610687	46.0	1.6335877862595418	-107.0	0.2530120481927711	1284.0	9.19277108433735	2026.0	0.024096385542168676	2045.0	-0.4290909090909091	472.0	-0.011818181818181818	-13.0	-0.21938775510204084	215.0	1.5228925465111875E12	1.522892546522E12	2191.40625	6272.0	0.0	0.0	
-0.5343511450381679	-23.0	0.3511450381679389	35.0	1.3893129770992365	-91.0	0.26506024096385544	1283.0	9.204819277108435	2025.0	0.0	2047.0	-0.4309090909090909	474.0	-0.028181818181818183	-31.0	-0.22244897959183677	218.0	1.5228925465150938E12	1.522892546523E12	2195.3125	6400.0	0.0	0.0	
-0.7633587786259541	-27.0	0.41221374045801523	50.0	1.6030534351145038	-105.0	0.28915662650602414	1284.0	9.19277108433735	2023.0	-0.024096385542168676	2049.0	-0.42454545454545456	467.0	-0.025454545454545455	-28.0	-0.22551020408163266	221.0	1.522892546519E12	1.522892546524E12	2199.21875	6528.0	0.0	0.0	
-0.5190839694656488	-39.0	0.5954198473282443	34.0	1.4809160305343512	-97.0	0.3132530120481928	1284.0	9.19277108433735	2021.0	-0.03614457831325302	2050.0	-0.42727272727272725	470.0	-0.014545454545454545	-16.0	-0.22040816326530616	216.0	1.5228925465229063E12	1.522892546537E12	2203.125	6656.0	0.0	0.0	
-0.7633587786259541	-39.0	0.5954198473282443	50.0	1.6030534351145038	-105.0	0.3132530120481928	1284.0	9.19277108433735	2021.0	-0.024096385542168676	2049.0	-0.42818181818181816	471.0	-0.028181818181818183	-31.0	-0.22142857142857145	217.0	1.5228925465268125E12	1.522892546538E12	2207.03125	6784.0	0.0	0.0	
-0.5190839694656488	-45.0	0.6870229007633587	34.0	1.3893129770992365	-91.0	0.27710843373493976	1283.0	9.204819277108435	2024.0	-0.024096385542168676	2049.0	-0.42818181818181816	471.0	-0.02181818181818182	-24.0	-0.22142857142857145	217.0	1.5228925465307188E12	1.52289254654E12	2210.9375	6912.0	0.0	0.0	
-0.8549618320610687	-38.0	0.5801526717557252	56.0	1.282442748091603	-84.0	0.2530120481927711	1284.0	9.19277108433735	2026.0	-0.012048192771084338	2048.0	-0.4209090909090909	463.0	-0.02181818181818182	-24.0	-0.22653061224489798	222.0	1.522892546534625E12	1.522892546544E12	2214.84375	7040.0	0.0	0.0	
-0.7633587786259541	-54.0	0.8244274809160305	50.0	1.3587786259541985	-89.0	0.21686746987951808	1283.0	9.204819277108435	2029.0	0.0	2047.0	-0.41909090909090907	461.0	-0.0018181818181818182	-2.0	-0.22244897959183677	218.0	1.5228925465385313E12	1.522892546544E12	2218.75	7168.0	0.0	0.0	
-0.732824427480916	-39.0	0.5954198473282443	48.0	1.297709923664122	-85.0	0.1927710843373494	1284.0	9.19277108433735	2031.0	0.012048192771084338	2046.0	-0.42818181818181816	471.0	-0.03	-33.0	-0.22448979591836737	220.0	1.5228925465424375E12	1.522892546545E12	2222.65625	7296.0	0.0	0.0	
-0.7022900763358778	-43.0	0.6564885496183206	46.0	1.4809160305343512	-97.0	0.20481927710843376	1286.0	9.168674698795181	2030.0	0.012048192771084338	2046.0	-0.42363636363636364	466.0	-0.02727272727272727	-30.0	-0.22653061224489798	222.0	1.5228925465463438E12	1.522892546556E12	2226.5625	7424.0	0.0	0.0	
-0.7938931297709924	-31.0	0.47328244274809156	52.0	1.2519083969465647	-82.0	0.1927710843373494	1285.0	9.180722891566266	2031.0	0.0	2047.0	-0.43	473.0	-0.019090909090909092	-21.0	-0.22142857142857145	217.0	1.52289254655025E12	1.522892546557E12	2230.46875	7552.0	0.0	0.0	
-0.6870229007633587	-41.0	0.6259541984732824	45.0	1.3587786259541985	-89.0	0.21686746987951808	1285.0	9.180722891566266	2029.0	0.012048192771084338	2046.0	-0.42727272727272725	470.0	-0.026363636363636363	-29.0	-0.22346938775510206	219.0	1.5228925465541563E12	1.522892546558E12	2234.375	7680.0	0.0	0.0	
-0.6412213740458015	-31.0	0.47328244274809156	42.0	1.3587786259541985	-89.0	0.21686746987951808	1285.0	9.180722891566266	2029.0	-0.012048192771084338	2048.0	-0.42727272727272725	470.0	-0.026363636363636363	-29.0	-0.22346938775510206	219.0	1.5228925465580625E12	1.522892546559E12	2238.28125	7808.0	0.0	0.0	
-0.9312977099236641	-34.0	0.5190839694656488	61.0	1.3129770992366412	-86.0	0.20481927710843376	1284.0	9.19277108433735	2030.0	0.03614457831325302	2044.0	-0.42727272727272725	470.0	-0.03	-33.0	-0.2285714285714286	224.0	1.5228925465619688E12	1.522892546596E12	2242.1875	7936.0	0.0	0.0	
-0.8091603053435115	-48.0	0.732824427480916	53.0	1.4961832061068703	-98.0	0.20481927710843376	1285.0	9.180722891566266	2030.0	0.04819277108433735	2043.0	-0.4290909090909091	472.0	-0.01818181818181818	-20.0	-0.22040816326530616	216.0	1.522892546565875E12	1.522892546596E12	2246.09375	8064.0	0.0	0.0	
-0.9007633587786259	-35.0	0.5343511450381679	59.0	1.099236641221374	-72.0	0.16867469879518074	1284.0	9.19277108433735	2033.0	0.07228915662650603	2041.0	-0.4254545454545455	468.0	-0.03	-33.0	-0.22551020408163266	221.0	1.5228925465697813E12	1.522892546597E12	2250.0	8192.0	0.0	0.0	
-0.8091603053435115	-29.0	0.4427480916030534	53.0	1.3435114503816794	-88.0	0.1566265060240964	1284.0	9.19277108433735	2034.0	0.10843373493975904	2038.0	-0.4254545454545455	468.0	-0.01818181818181818	-20.0	-0.22346938775510206	219.0	1.5228925465736875E12	1.5228925466E12	2253.90625	8320.0	0.0	0.0	
-0.6717557251908397	-30.0	0.4580152671755725	44.0	1.7557251908396947	-115.0	0.1566265060240964	1284.0	9.19277108433735	2034.0	0.12048192771084337	2037.0	-0.43	473.0	-0.019090909090909092	-21.0	-0.22142857142857145	217.0	1.5228925465775938E12	1.522892546602E12	2257.8125	8448.0	0.0	0.0	
-0.7480916030534351	-31.0	0.47328244274809156	49.0	1.4809160305343512	-97.0	0.18072289156626506	1284.0	9.19277108433735	2032.0	0.0963855421686747	2039.0	-0.4263636363636364	469.0	-0.02909090909090909	-32.0	-0.22653061224489798	222.0	1.5228925465815E12	1.522892546602E12	2261.71875	8576.0	0.0	0.0	
-0.366412213740458	-29.0	0.4427480916030534	24.0	1.297709923664122	-85.0	0.1927710843373494	1283.0	9.204819277108435	2031.0	0.07228915662650603	2041.0	-0.4263636363636364	469.0	-0.02909090909090909	-32.0	-0.22653061224489798	222.0	1.5228925465854063E12	1.522892546605E12	2265.625	8704.0	0.0	0.0	
-0.6259541984732824	-44.0	0.6717557251908397	41.0	1.4045801526717556	-92.0	0.18072289156626506	1284.0	9.19277108433735	2032.0	0.060240963855421686	2042.0	-0.4254545454545455	468.0	-0.02909090909090909	-32.0	-0.22653061224489798	222.0	1.5228925465893125E12	1.522892546606E12	2269.53125	8832.0	0.0	0.0	
-0.6106870229007634	-30.0	0.4580152671755725	40.0	1.4351145038167938	-94.0	0.14457831325301207	1284.0	9.19277108433735	2035.0	0.060240963855421686	2042.0	-0.4309090909090909	474.0	-0.01818181818181818	-20.0	-0.22244897959183677	218.0	1.5228925465932188E12	1.522892546607E12	2273.4375	8960.0	0.0	0.0	
-0.6412213740458015	-27.0	0.41221374045801523	42.0	1.5877862595419847	-104.0	0.1566265060240964	1285.0	9.180722891566266	2034.0	0.04819277108433735	2043.0	-0.42454545454545456	467.0	-0.03	-33.0	-0.22755102040816327	223.0	1.522892546597125E12	1.522892546614E12	2277.34375	9088.0	0.0	0.0	
-0.6564885496183206	-32.0	0.48854961832061067	43.0	1.2213740458015268	-80.0	0.16867469879518074	1283.0	9.204819277108435	2033.0	0.060240963855421686	2042.0	-0.4254545454545455	468.0	-0.026363636363636363	-29.0	-0.22551020408163266	221.0	1.5228925466010313E12	1.522892546615E12	2281.25	9216.0	0.0	0.0	
-0.6564885496183206	-36.0	0.549618320610687	43.0	1.450381679389313	-95.0	0.18072289156626506	1286.0	9.168674698795181	2032.0	0.024096385542168676	2045.0	-0.4290909090909091	472.0	-0.016363636363636365	-18.0	-0.22142857142857145	217.0	1.5228925466049375E12	1.522892546616E12	2285.15625	9344.0	0.0	0.0	
-0.564885496183206	-18.0	0.2748091603053435	37.0	1.465648854961832	-96.0	0.1927710843373494	1284.0	9.19277108433735	2031.0	0.04819277108433735	2043.0	-0.42363636363636364	466.0	-0.01090909090909091	-12.0	-0.21734693877551023	213.0	1.5228925466088438E12	1.52289254662E12	2289.0625	9472.0	0.0	0.0	
-0.42748091603053434	-30.0	0.4580152671755725	28.0	1.4809160305343512	-97.0	0.18072289156626506	1285.0	9.180722891566266	2032.0	0.024096385542168676	2045.0	-0.42363636363636364	466.0	-0.01090909090909091	-12.0	-0.21734693877551023	213.0	1.52289254661275E12	1.522892546622E12	2292.96875	9600.0	0.0	0.0	
-0.6870229007633587	-22.0	0.33587786259541985	45.0	1.450381679389313	-95.0	0.16867469879518074	1283.0	9.204819277108435	2033.0	0.0	2047.0	-0.42363636363636364	466.0	-0.023636363636363636	-26.0	-0.22244897959183677	218.0	1.5228925466166563E12	1.522892546626E12	2296.875	9728.0	0.0	0.0	
-0.4427480916030534	-32.0	0.48854961832061067	29.0	1.6335877862595418	-107.0	0.1566265060240964	1285.0	9.180722891566266	2034.0	0.0	2047.0	-0.41909090909090907	461.0	-0.026363636363636363	-29.0	-0.22244897959183677	218.0	1.5228925466205625E12	1.522892546629E12	2300.78125	9856.0	0.0	0.0	
-0.5343511450381679	-25.0	0.38167938931297707	35.0	1.6793893129770991	-110.0	0.14457831325301207	1283.0	9.204819277108435	2035.0	-0.012048192771084338	2048.0	-0.4309090909090909	474.0	-0.017272727272727273	-19.0	-0.2163265306122449	212.0	1.5228925466244688E12	1.52289254663E12	2304.6875	9984.0	0.0	0.0	
-0.5038167938931297	-30.0	0.4580152671755725	33.0	1.5572519083969465	-102.0	0.1566265060240964	1283.0	9.204819277108435	2034.0	-0.024096385542168676	2049.0	-0.4209090909090909	463.0	-0.02	-22.0	-0.22346938775510206	219.0	1.522892546628375E12	1.522892546631E12	2308.59375	10112.0	0.0	0.0	
-0.6717557251908397	-12.0	0.183206106870229	44.0	1.6030534351145038	-105.0	0.1566265060240964	1285.0	9.180722891566266	2034.0	-0.012048192771084338	2048.0	-0.43	473.0	-0.02	-22.0	-0.22244897959183677	218.0	1.5228925466322813E12	1.522892546646E12	2312.5	10240.0	0.0	0.0	
-0.6106870229007634	-22.0	0.33587786259541985	40.0	1.5877862595419847	-104.0	0.18072289156626506	1286.0	9.168674698795181	2032.0	-0.012048192771084338	2048.0	-0.4263636363636364	469.0	-0.025454545454545455	-28.0	-0.22551020408163266	221.0	1.5228925466361875E12	1.522892546648E12	2316.40625	10368.0	0.0	0.0	
-0.5038167938931297	-13.0	0.1984732824427481	33.0	1.618320610687023	-106.0	0.20481927710843376	1285.0	9.180722891566266	2030.0	-0.012048192771084338	2048.0	-0.4263636363636364	469.0	-0.025454545454545455	-28.0	-0.22551020408163266	221.0	1.5228925466400938E12	1.522892546649E12	2320.3125	10496.0	0.0	0.0	
-0.6259541984732824	-30.0	0.4580152671755725	41.0	1.6946564885496183	-111.0	0.20481927710843376	1283.0	9.204819277108435	2030.0	0.0	2047.0	-0.4209090909090909	463.0	-0.012727272727272728	-14.0	-0.22040816326530616	216.0	1.522892546644E12	1.522892546653E12	2324.21875	10624.0	0.0	0.0	
-0.6412213740458015	-32.0	0.48854961832061067	42.0	1.6793893129770991	-110.0	0.18072289156626506	1283.0	9.204819277108435	2032.0	0.0	2047.0	-0.43	473.0	-0.022727272727272728	-25.0	-0.21938775510204084	215.0	1.5228925466479063E12	1.522892546654E12	2328.125	10752.0	0.0	0.0	
-0.38167938931297707	-27.0	0.41221374045801523	25.0	1.5877862595419847	-104.0	0.1566265060240964	1284.0	9.19277108433735	2034.0	-0.024096385542168676	2049.0	-0.4263636363636364	469.0	-0.03	-33.0	-0.22551020408163266	221.0	1.5228925466518125E12	1.522892546655E12	2332.03125	10880.0	0.0	0.0	
-0.4427480916030534	-21.0	0.32061068702290074	29.0	1.6793893129770991	-110.0	0.18072289156626506	1285.0	9.180722891566266	2032.0	-0.024096385542168676	2049.0	-0.4209090909090909	463.0	-0.01818181818181818	-20.0	-0.21734693877551023	213.0	1.5228925466557188E12	1.522892546669E12	2335.9375	11008.0	0.0	0.0	
-0.6564885496183206	-14.0	0.21374045801526717	43.0	1.5267175572519083	-100.0	0.20481927710843376	1285.0	9.180722891566266	2030.0	0.024096385542168676	2045.0	-0.42272727272727273	465.0	-0.0027272727272727275	-3.0	-0.21836734693877552	214.0	1.522892546659625E12	1.52289254667E12	2339.84375	11136.0	0.0	0.0	
-0.4580152671755725	-23.0	0.3511450381679389	30.0	1.6946564885496183	-111.0	0.2530120481927711	1284.0	9.19277108433735	2026.0	0.024096385542168676	2045.0	-0.42272727272727273	465.0	-0.01090909090909091	-12.0	-0.21938775510204084	215.0	1.5228925466635313E12	1.522892546671E12	2343.75	11264.0	0.0	0.0	
-0.7175572519083969	-28.0	0.42748091603053434	47.0	1.6335877862595418	-107.0	0.24096385542168675	1283.0	9.204819277108435	2027.0	0.0	2047.0	-0.4254545454545455	468.0	-0.01090909090909091	-12.0	-0.21938775510204084	215.0	1.5228925466674375E12	1.522892546675E12	2347.65625	11392.0	0.0	0.0	
-0.47328244274809156	-35.0	0.5343511450381679	31.0	1.450381679389313	-95.0	0.20481927710843376	1283.0	9.204819277108435	2030.0	0.012048192771084338	2046.0	-0.41909090909090907	461.0	-0.013636363636363636	-15.0	-0.21938775510204084	215.0	1.5228925466713438E12	1.522892546677E12	2351.5625	11520.0	0.0	0.0	
-0.41221374045801523	-26.0	0.3969465648854962	27.0	1.465648854961832	-96.0	0.16867469879518074	1284.0	9.19277108433735	2033.0	-0.024096385542168676	2049.0	-0.4290909090909091	472.0	-0.02090909090909091	-23.0	-0.22142857142857145	217.0	1.52289254667525E12	1.522892546678E12	2355.46875	11648.0	0.0	0.0	
-0.48854961832061067	-25.0	0.38167938931297707	32.0	1.4809160305343512	-97.0	0.1566265060240964	1283.0	9.204819277108435	2034.0	-0.024096385542168676	2049.0	-0.4290909090909091	472.0	-0.02909090909090909	-32.0	-0.22448979591836737	220.0	1.5228925466791563E12	1.522892546691E12	2359.375	11776.0	0.0	0.0	
-0.5038167938931297	-26.0	0.3969465648854962	33.0	1.6335877862595418	-107.0	0.14457831325301207	1285.0	9.180722891566266	2035.0	-0.04819277108433735	2051.0	-0.41818181818181815	460.0	-0.024545454545454544	-27.0	-0.22040816326530616	216.0	1.5228925466830625E12	1.522892546692E12	2363.28125	11904.0	0.0	0.0	
-0.5190839694656488	-22.0	0.33587786259541985	34.0	1.6335877862595418	-107.0	0.18072289156626506	1284.0	9.19277108433735	2032.0	-0.03614457831325302	2050.0	-0.42	462.0	-0.026363636363636363	-29.0	-0.22244897959183677	218.0	1.5228925466869688E12	1.522892546694E12	2367.1875	12032.0	0.0	0.0	
-0.7175572519083969	-21.0	0.32061068702290074	47.0	1.618320610687023	-106.0	0.2530120481927711	1285.0	9.180722891566266	2026.0	-0.024096385542168676	2049.0	-0.42	462.0	-0.026363636363636363	-29.0	-0.22244897959183677	218.0	1.522892546690875E12	1.522892546698E12	2371.09375	12160.0	0.0	0.0	
-0.5343511450381679	-17.0	0.2595419847328244	35.0	1.6946564885496183	-111.0	0.26506024096385544	1284.0	9.19277108433735	2025.0	-0.024096385542168676	2049.0	-0.4263636363636364	469.0	-0.00909090909090909	-10.0	-0.22551020408163266	221.0	1.5228925466947813E12	1.522892546699E12	2375.0	12288.0	0.0	0.0	
-0.32061068702290074	-19.0	0.2900763358778626	21.0	1.3587786259541985	-89.0	0.22891566265060243	1283.0	9.204819277108435	2028.0	-0.024096385542168676	2049.0	-0.42454545454545456	467.0	-0.01090909090909091	-12.0	-0.22244897959183677	218.0	1.5228925466986875E12	1.522892546702E12	2378.90625	12416.0	0.0	0.0	
-0.4427480916030534	-20.0	0.3053435114503817	29.0	1.5877862595419847	-104.0	0.21686746987951808	1283.0	9.204819277108435	2029.0	-0.03614457831325302	2050.0	-0.4309090909090909	474.0	-0.025454545454545455	-28.0	-0.21734693877551023	213.0	1.5228925467025938E12	1.522892546746E12	2382.8125	12544.0	0.0	0.0	
-0.7022900763358778	-29.0	0.4427480916030534	46.0	1.6946564885496183	-111.0	0.20481927710843376	1285.0	9.180722891566266	2030.0	-0.060240963855421686	2052.0	-0.42727272727272725	470.0	-0.011818181818181818	-13.0	-0.21530612244897962	211.0	1.5228925467065E12	1.522892546747E12	2386.71875	12672.0	0.0	0.0	
-0.47328244274809156	-26.0	0.3969465648854962	31.0	1.618320610687023	-106.0	0.20481927710843376	1284.0	9.19277108433735	2030.0	-0.060240963855421686	2052.0	-0.4254545454545455	468.0	-0.014545454545454545	-16.0	-0.21938775510204084	215.0	1.5228925467104063E12	1.522892546749E12	2390.625	12800.0	0.0	0.0	
-0.5038167938931297	-19.0	0.2900763358778626	33.0	1.5877862595419847	-104.0	0.21686746987951808	1282.0	9.216867469879519	2029.0	-0.07228915662650603	2053.0	-0.4218181818181818	464.0	-0.02181818181818182	-24.0	-0.22142857142857145	217.0	1.5228925467143125E12	1.522892546751E12	2394.53125	12928.0	0.0	0.0	
-0.6259541984732824	-6.0	0.0916030534351145	41.0	1.7251908396946565	-113.0	0.24096385542168675	1285.0	9.180722891566266	2027.0	-0.08433734939759037	2054.0	-0.4218181818181818	464.0	-0.02181818181818182	-24.0	-0.22142857142857145	217.0	1.5228925467182188E12	1.522892546753E12	2398.4375	13056.0	0.0	0.0	
-0.549618320610687	-34.0	0.5190839694656488	36.0	1.5419847328244274	-101.0	0.26506024096385544	1285.0	9.180722891566266	2025.0	-0.08433734939759037	2054.0	-0.43	473.0	-0.022727272727272728	-25.0	-0.22755102040816327	223.0	1.522892546722125E12	1.522892546754E12	2402.34375	13184.0	0.0	0.0	
-0.48854961832061067	-28.0	0.42748091603053434	32.0	1.618320610687023	-106.0	0.2530120481927711	1283.0	9.204819277108435	2026.0	-0.08433734939759037	2054.0	-0.42363636363636364	466.0	-0.014545454545454545	-16.0	-0.22448979591836737	220.0	1.5228925467260313E12	1.522892546755E12	2406.25	13312.0	0.0	0.0	
-0.6717557251908397	-32.0	0.48854961832061067	44.0	1.465648854961832	-96.0	0.20481927710843376	1282.0	9.216867469879519	2030.0	-0.07228915662650603	2053.0	-0.4318181818181818	475.0	-0.02909090909090909	-32.0	-0.22142857142857145	217.0	1.5228925467299375E12	1.522892546757E12	2410.15625	13440.0	0.0	0.0	
-0.5343511450381679	-32.0	0.48854961832061067	35.0	1.4809160305343512	-97.0	0.21686746987951808	1283.0	9.204819277108435	2029.0	-0.07228915662650603	2053.0	-0.4290909090909091	472.0	-0.028181818181818183	-31.0	-0.22551020408163266	221.0	1.5228925467338438E12	1.522892546757E12	2414.0625	13568.0	0.0	0.0	
-0.564885496183206	-30.0	0.4580152671755725	37.0	1.4809160305343512	-97.0	0.20481927710843376	1286.0	9.168674698795181	2030.0	-0.060240963855421686	2052.0	-0.4254545454545455	468.0	-0.019090909090909092	-21.0	-0.22755102040816327	223.0	1.52289254673775E12	1.522892546759E12	2417.96875	13696.0	0.0	0.0	
-0.6870229007633587	-19.0	0.2900763358778626	45.0	1.618320610687023	-106.0	0.22891566265060243	1285.0	9.180722891566266	2028.0	-0.060240963855421686	2052.0	-0.43272727272727274	476.0	-0.028181818181818183	-31.0	-0.22142857142857145	217.0	1.5228925467416563E12	1.522892546759E12	2421.875	13824.0	0.0	0.0	
-0.732824427480916	-27.0	0.41221374045801523	48.0	1.5419847328244274	-101.0	0.26506024096385544	1284.0	9.19277108433735	2025.0	-0.060240963855421686	2052.0	-0.43272727272727274	476.0	-0.028181818181818183	-31.0	-0.22142857142857145	217.0	1.5228925467455625E12	1.52289254676E12	2425.78125	13952.0	0.0	0.0	
-0.5343511450381679	-40.0	0.6106870229007634	35.0	1.618320610687023	-106.0	0.26506024096385544	1284.0	9.19277108433735	2025.0	-0.0963855421686747	2055.0	-0.42727272727272725	470.0	-0.028181818181818183	-31.0	-0.22551020408163266	221.0	1.5228925467494688E12	1.522892546761E12	2429.6875	14080.0	0.0	0.0	
-0.5954198473282443	-35.0	0.5343511450381679	39.0	1.5114503816793892	-99.0	0.21686746987951808	1284.0	9.19277108433735	2029.0	-0.07228915662650603	2053.0	-0.42727272727272725	470.0	-0.019090909090909092	-21.0	-0.22755102040816327	223.0	1.522892546753375E12	1.522892546762E12	2433.59375	14208.0	0.0	0.0	
-0.6106870229007634	-37.0	0.564885496183206	40.0	1.4961832061068703	-98.0	0.18072289156626506	1284.0	9.19277108433735	2032.0	-0.08433734939759037	2054.0	-0.42818181818181816	471.0	-0.028181818181818183	-31.0	-0.22244897959183677	218.0	1.5228925467572813E12	1.522892546762E12	2437.5	14336.0	0.0	0.0	
-0.6412213740458015	-42.0	0.6412213740458015	42.0	1.5114503816793892	-99.0	0.16867469879518074	1284.0	9.19277108433735	2033.0	-0.07228915662650603	2053.0	-0.42818181818181816	471.0	-0.02090909090909091	-23.0	-0.21938775510204084	215.0	1.5228925467611875E12	1.522892546774E12	2441.40625	14464.0	0.0	0.0	
-0.732824427480916	-32.0	0.48854961832061067	48.0	1.618320610687023	-106.0	0.1566265060240964	1285.0	9.180722891566266	2034.0	-0.060240963855421686	2052.0	-0.42454545454545456	467.0	-0.017272727272727273	-19.0	-0.22244897959183677	218.0	1.5228925467650938E12	1.522892546774E12	2445.3125	14592.0	0.0	0.0	
-0.6259541984732824	-41.0	0.6259541984732824	41.0	1.83206106870229	-120.0	0.16867469879518074	1286.0	9.168674698795181	2033.0	-0.060240963855421686	2052.0	-0.4163636363636364	458.0	-0.007272727272727273	-8.0	-0.2163265306122449	212.0	1.522892546769E12	1.522892546775E12	2449.21875	14720.0	0.0	0.0	
-0.6106870229007634	-40.0	0.6106870229007634	40.0	1.83206106870229	-120.0	0.20481927710843376	1285.0	9.180722891566266	2030.0	-0.03614457831325302	2050.0	-0.4163636363636364	458.0	-0.007272727272727273	-8.0	-0.2163265306122449	212.0	1.5228925467729063E12	1.522892546781E12	2453.125	14848.0	0.0	0.0	
-0.7175572519083969	-43.0	0.6564885496183206	47.0	1.450381679389313	-95.0	0.20481927710843376	1284.0	9.19277108433735	2030.0	-0.012048192771084338	2048.0	-0.4209090909090909	463.0	-0.01818181818181818	-20.0	-0.21530612244897962	211.0	1.5228925467768125E12	1.522892546782E12	2457.03125	14976.0	0.0	0.0	
-0.6870229007633587	-34.0	0.5190839694656488	45.0	1.66412213740458	-109.0	0.1927710843373494	1285.0	9.180722891566266	2031.0	-0.012048192771084338	2048.0	-0.4254545454545455	468.0	-0.013636363636363636	-15.0	-0.21938775510204084	215.0	1.5228925467807188E12	1.522892546783E12	2460.9375	15104.0	0.0	0.0	
-0.6564885496183206	-35.0	0.5343511450381679	43.0	1.618320610687023	-106.0	0.18072289156626506	1284.0	9.19277108433735	2032.0	-0.012048192771084338	2048.0	-0.4318181818181818	475.0	-0.02909090909090909	-32.0	-0.22040816326530616	216.0	1.522892546784625E12	1.522892546805E12	2464.84375	15232.0	0.0	0.0	
-0.564885496183206	-29.0	0.4427480916030534	37.0	1.6030534351145038	-105.0	0.16867469879518074	1284.0	9.19277108433735	2033.0	0.0	2047.0	-0.4263636363636364	469.0	-0.02	-22.0	-0.21836734693877552	214.0	1.5228925467885313E12	1.522892546806E12	2468.75	15360.0	0.0	0.0	
-0.7022900763358778	-40.0	0.6106870229007634	46.0	1.648854961832061	-108.0	0.18072289156626506	1285.0	9.180722891566266	2032.0	0.012048192771084338	2046.0	-0.42727272727272725	470.0	-0.011818181818181818	-13.0	-0.22040816326530616	216.0	1.5228925467924375E12	1.522892546806E12	2472.65625	15488.0	0.0	0.0	
-0.7175572519083969	-1.0	0.015267175572519083	47.0	1.618320610687023	-106.0	0.20481927710843376	1286.0	9.168674698795181	2030.0	0.0	2047.0	-0.41818181818181815	460.0	0.008181818181818182	9.0	-0.22346938775510206	219.0	1.5228925467963438E12	1.522892546807E12	2476.5625	15616.0	0.0	0.0	
-0.4580152671755725	-19.0	0.2900763358778626	30.0	1.7557251908396947	-115.0	0.24096385542168675	1285.0	9.180722891566266	2027.0	0.012048192771084338	2046.0	-0.41818181818181815	460.0	0.008181818181818182	9.0	-0.22346938775510206	219.0	1.52289254680025E12	1.522892546808E12	2480.46875	15744.0	0.0	0.0	
-0.732824427480916	-29.0	0.4427480916030534	48.0	1.7404580152671756	-114.0	0.21686746987951808	1285.0	9.180722891566266	2029.0	0.012048192771084338	2046.0	-0.42363636363636364	466.0	-0.02	-22.0	-0.22346938775510206	219.0	1.5228925468041563E12	1.52289254681E12	2484.375	15872.0	0.0	0.0	
-0.47328244274809156	-22.0	0.33587786259541985	31.0	1.618320610687023	-106.0	0.24096385542168675	1285.0	9.180722891566266	2027.0	0.0	2047.0	-0.4263636363636364	469.0	-0.011818181818181818	-13.0	-0.22142857142857145	217.0	1.5228925468080625E12	1.522892546811E12	2488.28125	16000.0	0.0	0.0	
-0.5343511450381679	-24.0	0.366412213740458	35.0	1.8473282442748091	-121.0	0.21686746987951808	1286.0	9.168674698795181	2029.0	-0.03614457831325302	2050.0	-0.4263636363636364	469.0	-0.031818181818181815	-35.0	-0.21938775510204084	215.0	1.5228925468119688E12	1.522892546824E12	2492.1875	16128.0	0.0	0.0	
-0.47328244274809156	-35.0	0.5343511450381679	31.0	1.4961832061068703	-98.0	0.24096385542168675	1285.0	9.180722891566266	2027.0	-0.04819277108433735	2051.0	-0.42272727272727273	465.0	-0.025454545454545455	-28.0	-0.22040816326530616	216.0	1.522892546815875E12	1.522892546825E12	2496.09375	16256.0	0.0	0.0	
-0.6717557251908397	-9.0	0.13740458015267176	44.0	1.465648854961832	-96.0	0.24096385542168675	1286.0	9.168674698795181	2027.0	-0.060240963855421686	2052.0	-0.4218181818181818	464.0	-0.025454545454545455	-28.0	-0.21938775510204084	215.0	1.5228925468197813E12	1.522892546826E12	2500.0	16384.0	0.0	0.0	
-0.6106870229007634	-6.0	0.0916030534351145	40.0	1.648854961832061	-108.0	0.2530120481927711	1285.0	9.180722891566266	2026.0	-0.08433734939759037	2054.0	-0.4218181818181818	464.0	-0.03	-33.0	-0.21938775510204084	215.0	1.5228925468236875E12	1.522892546832E12	2503.90625	16512.0	0.0	0.0	
-0.5190839694656488	-30.0	0.4580152671755725	34.0	1.66412213740458	-109.0	0.27710843373493976	1285.0	9.180722891566266	2024.0	-0.10843373493975904	2056.0	-0.42818181818181816	471.0	-0.03	-33.0	-0.22142857142857145	217.0	1.5228925468275938E12	1.522892546833E12	2507.8125	16640.0	0.0	0.0	
-0.6870229007633587	-28.0	0.42748091603053434	45.0	1.6946564885496183	-111.0	0.30120481927710846	1284.0	9.19277108433735	2022.0	-0.12048192771084337	2057.0	-0.4263636363636364	469.0	-0.03	-33.0	-0.22551020408163266	221.0	1.5228925468315E12	1.522892546834E12	2511.71875	16768.0	0.0	0.0	
-0.48854961832061067	-46.0	0.7022900763358778	32.0	1.6946564885496183	-111.0	0.3253012048192771	1285.0	9.180722891566266	2020.0	-0.12048192771084337	2057.0	-0.43	473.0	-0.01818181818181818	-20.0	-0.2163265306122449	212.0	1.5228925468354063E12	1.522892546847E12	2515.625	16896.0	0.0	0.0	
-0.6259541984732824	-35.0	0.5343511450381679	41.0	1.5877862595419847	-104.0	0.28915662650602414	1282.0	9.216867469879519	2023.0	-0.10843373493975904	2056.0	-0.4218181818181818	464.0	-0.01090909090909091	-12.0	-0.22346938775510206	219.0	1.5228925468393125E12	1.522892546848E12	2519.53125	17024.0	0.0	0.0	
-0.916030534351145	-30.0	0.4580152671755725	60.0	1.5114503816793892	-99.0	0.26506024096385544	1283.0	9.204819277108435	2025.0	-0.10843373493975904	2056.0	-0.41909090909090907	461.0	-0.022727272727272728	-25.0	-0.22448979591836737	220.0	1.5228925468432188E12	1.522892546849E12	2523.4375	17152.0	0.0	0.0	
-0.42748091603053434	-41.0	0.6259541984732824	28.0	1.4351145038167938	-94.0	0.24096385542168675	1283.0	9.204819277108435	2027.0	-0.0963855421686747	2055.0	-0.43	473.0	-0.01818181818181818	-20.0	-0.21938775510204084	215.0	1.522892546847125E12	1.522892546859E12	2527.34375	17280.0	0.0	0.0	
-0.8549618320610687	-39.0	0.5954198473282443	56.0	1.6335877862595418	-107.0	0.21686746987951808	1286.0	9.168674698795181	2029.0	-0.07228915662650603	2053.0	-0.43	473.0	-0.01818181818181818	-20.0	-0.21938775510204084	215.0	1.5228925468510313E12	1.522892546861E12	2531.25	17408.0	0.0	0.0	
-0.8549618320610687	-43.0	0.6564885496183206	56.0	1.618320610687023	-106.0	0.21686746987951808	1284.0	9.19277108433735	2029.0	-0.08433734939759037	2054.0	-0.43	473.0	-0.01818181818181818	-20.0	-0.21938775510204084	215.0	1.5228925468549375E12	1.522892546862E12	2535.15625	17536.0	0.0	0.0	
-0.5038167938931297	-30.0	0.4580152671755725	33.0	1.5725190839694656	-103.0	0.22891566265060243	1285.0	9.180722891566266	2028.0	-0.08433734939759037	2054.0	-0.42454545454545456	467.0	-0.019090909090909092	-21.0	-0.22244897959183677	218.0	1.5228925468588438E12	1.522892546897E12	2539.0625	17664.0	0.0	0.0	
-0.7938931297709924	-29.0	0.4427480916030534	52.0	1.6335877862595418	-107.0	0.26506024096385544	1285.0	9.180722891566266	2025.0	-0.060240963855421686	2052.0	-0.4209090909090909	463.0	-0.02909090909090909	-32.0	-0.21938775510204084	215.0	1.52289254686275E12	1.522892546898E12	2542.96875	17792.0	0.0	0.0	
-0.8396946564885496	-31.0	0.47328244274809156	55.0	1.3740458015267174	-90.0	0.26506024096385544	1283.0	9.204819277108435	2025.0	-0.024096385542168676	2049.0	-0.42818181818181816	471.0	-0.02909090909090909	-32.0	-0.22551020408163266	221.0	1.5228925468666563E12	1.522892546899E12	2546.875	17920.0	0.0	0.0	
-0.9312977099236641	-51.0	0.7786259541984732	61.0	1.3893129770992365	-91.0	0.24096385542168675	1284.0	9.19277108433735	2027.0	-0.03614457831325302	2050.0	-0.42454545454545456	467.0	-0.022727272727272728	-25.0	-0.22142857142857145	217.0	1.5228925468705625E12	1.522892546901E12	2550.78125	18048.0	0.0	0.0	
-0.9312977099236641	-55.0	0.8396946564885496	61.0	1.5114503816793892	-99.0	0.21686746987951808	1282.0	9.216867469879519	2029.0	-0.024096385542168676	2049.0	-0.4318181818181818	475.0	-0.01818181818181818	-20.0	-0.2163265306122449	212.0	1.5228925468744688E12	1.522892546902E12	2554.6875	18176.0	0.0	0.0	
-0.8091603053435115	-43.0	0.6564885496183206	53.0	1.3740458015267174	-90.0	0.20481927710843376	1284.0	9.19277108433735	2030.0	-0.012048192771084338	2048.0	-0.4318181818181818	475.0	-0.01818181818181818	-20.0	-0.2163265306122449	212.0	1.522892546878375E12	1.522892546903E12	2558.59375	18304.0	0.0	0.0	
-0.6412213740458015	-47.0	0.7175572519083969	42.0	1.4961832061068703	-98.0	0.18072289156626506	1282.0	9.216867469879519	2032.0	-0.012048192771084338	2048.0	-0.42	462.0	-0.03	-33.0	-0.22448979591836737	220.0	1.5228925468822813E12	1.522892546904E12	2562.5	18432.0	0.0	0.0	
-0.6412213740458015	-41.0	0.6259541984732824	42.0	1.4198473282442747	-93.0	0.20481927710843376	1285.0	9.180722891566266	2030.0	0.0	2047.0	-0.4218181818181818	464.0	-0.016363636363636365	-18.0	-0.22346938775510206	219.0	1.5228925468861875E12	1.522892546905E12	2566.40625	18560.0	0.0	0.0	
-0.732824427480916	-35.0	0.5343511450381679	48.0	1.465648854961832	-96.0	0.20481927710843376	1284.0	9.19277108433735	2030.0	0.0	2047.0	-0.4290909090909091	472.0	-0.02	-22.0	-0.2163265306122449	212.0	1.5228925468900938E12	1.522892546906E12	2570.3125	18688.0	0.0	0.0	
-0.7938931297709924	-32.0	0.48854961832061067	52.0	1.5114503816793892	-99.0	0.20481927710843376	1284.0	9.19277108433735	2030.0	0.0	2047.0	-0.4254545454545455	468.0	-0.03	-33.0	-0.22244897959183677	218.0	1.522892546894E12	1.522892546909E12	2574.21875	18816.0	0.0	0.0	
-0.732824427480916	-40.0	0.6106870229007634	48.0	1.465648854961832	-96.0	0.20481927710843376	1282.0	9.216867469879519	2030.0	-0.012048192771084338	2048.0	-0.4263636363636364	469.0	-0.019090909090909092	-21.0	-0.22040816326530616	216.0	1.5228925468979063E12	1.52289254691E12	2578.125	18944.0	0.0	0.0	
-0.9007633587786259	-42.0	0.6412213740458015	59.0	1.5877862595419847	-104.0	0.20481927710843376	1285.0	9.180722891566266	2030.0	-0.012048192771084338	2048.0	-0.4263636363636364	469.0	-0.01818181818181818	-20.0	-0.21734693877551023	213.0	1.5228925469018125E12	1.522892546911E12	2582.03125	19072.0	0.0	0.0	
-0.564885496183206	-28.0	0.42748091603053434	37.0	1.618320610687023	-106.0	0.20481927710843376	1285.0	9.180722891566266	2030.0	-0.012048192771084338	2048.0	-0.4263636363636364	469.0	-0.01818181818181818	-20.0	-0.21734693877551023	213.0	1.5228925469057188E12	1.522892546912E12	2585.9375	19200.0	0.0	0.0	
-0.7786259541984732	-41.0	0.6259541984732824	51.0	1.6793893129770991	-110.0	0.1927710843373494	1283.0	9.204819277108435	2031.0	-0.03614457831325302	2050.0	-0.42727272727272725	470.0	-0.03363636363636364	-37.0	-0.22551020408163266	221.0	1.522892546909625E12	1.522892546914E12	2589.84375	19328.0	0.0	0.0	
-0.6717557251908397	-28.0	0.42748091603053434	44.0	1.5725190839694656	-103.0	0.22891566265060243	1285.0	9.180722891566266	2028.0	-0.012048192771084338	2048.0	-0.42818181818181816	471.0	-0.019090909090909092	-21.0	-0.22346938775510206	219.0	1.5228925469135313E12	1.522892546914E12	2593.75	19456.0	0.0	0.0	
