belt	belt	belt	belt	belt	belt	belt	belt	belt	belt	belt	belt	belt	belt	belt	belt	belt	belt	belt	belt	belt	belt	belt	belt	belt	belt	belt	belt	belt	belt	belt	belt	belt	belt	belt	belt	Annotation	Annotation	
Axis Angle A	Axis Angle X	Axis Angle Y	Axis Angle Z	Gyroscope X	Gyroscope X	Gyroscope Y	Gyroscope Y	Gyroscope Z	Gyroscope Z	Low Noise Accelerometer X	Low Noise Accelerometer X	Low Noise Accelerometer Y	Low Noise Accelerometer Y	Low Noise Accelerometer Z	Low Noise Accelerometer Z	Magnetometer X	Magnetometer X	Magnetometer Y	Magnetometer Y	Magnetometer Z	Magnetometer Z	Pressure	Pressure	Quaternion 0	Quaternion 1	Quaternion 2	Quaternion 3	SyncTimestamp	SystemTimestamp	Temperature	Temperature	Timestamp	Timestamp	VSenseBatt	VSenseBatt	Level	Pulse	
CAL	CAL	CAL	CAL	CAL	RAW	CAL	RAW	CAL	RAW	CAL	RAW	CAL	RAW	CAL	RAW	CAL	RAW	CAL	RAW	CAL	RAW	CAL	RAW	CAL	CAL	CAL	CAL	CAL	UNCAL	CAL	RAW	CAL	RAW	CAL	RAW	no format	no format	
local	local	local	local	deg/s	No Units	deg/s	No Units	deg/s	No Units	m/s^2	No Units	m/s^2	No Units	m/s^2	No Units	local flux	No Units	local flux	No Units	local flux	No Units	kPa	No Units	local	local	local	local	mSecs	mSecs	Degrees Celsius	No Units	mSecs	No Units	mV	No Units	no unit	no unit	
0.0030777591112356867	0.9207439382007668	-0.08070873259907393	0.38172856946546835	-0.6983376603247171	-136.0	0.16073158445383035	42.0	-0.09547797109311361	99.0	0.5662650602409639	1236.0	9.771084337349398	2000.0	-0.3614457831325301	2077.0	0.42363636363636364	-466.0	-0.8118181818181818	-893.0	-0.1306122448979592	128.0	95.26792515349575	39910.0	0.9999988159250903	0.0014169134632120606	-1.242009695354351E-4	5.874340594902349E-4	1.522816001683E12	1.522816001689E12	27.217989127306716	25990.0	121.09375	3968.0	3859.340659340659	2634.0	0.0	0.0	
0.006200227724319961	0.9217025329934652	-0.08134424000506381	0.3792724025174869	0.0	-128.0	-0.12213740458015267	42.0	-0.12213740458015267	107.0	0.5421686746987953	1235.0	9.783132530120483	2002.0	-0.39759036144578314	2080.0	0.42818181818181816	-471.0	-0.8281818181818181	-911.0	-0.12755102040816327	125.0	95.26792515349575	39910.0	0.9999951946508694	0.002857378222412225	-2.521760021145462E-4	0.001175785749221885	1.5228160016908125E12	1.52281600171E12	27.217989127306716	25990.0	128.90625	4224.0	3859.340659340659	2634.0	0.0	0.0	
0.009320639985985034	0.923025541118784	-0.07959699309690285	0.37641488961612246	0.0916030534351145	-127.0	-0.07633587786259542	36.0	-0.41221374045801523	130.0	0.4819277108433735	1235.0	9.783132530120483	2007.0	-0.42168674698795183	2082.0	0.41454545454545455	-456.0	-0.82	-902.0	-0.1285714285714286	126.0	95.25899105581045	39907.0	0.9999891407284355	0.004301578812580143	-3.70946115570883E-4	0.0017542074859053483	1.522816001698625E12	1.522816001711E12	27.217989127306716	25990.0	136.71875	4480.0	3837.362637362637	2619.0	0.0	0.0	
0.012425039709061714	0.923747855255689	-0.07616186160471254	0.3753521956058546	-0.1984732824427481	-134.0	0.05597964376590316	53.0	-0.2900763358778626	131.0	0.39759036144578314	1235.0	9.783132530120483	2014.0	-0.42168674698795183	2082.0	0.4209090909090909	-463.0	-0.8127272727272727	-894.0	-0.1316326530612245	129.0	95.25899105581045	39907.0	0.9999807023605953	0.0057387649761989346	-4.7315403376850545E-4	0.002331867967678276	1.5228160017064375E12	1.522816001712E12	27.217989127306716	25990.0	144.53125	4736.0	3852.014652014652	2629.0	0.0	0.0	
0.015562281844834873	0.9238406713270872	-0.0742561329863883	0.37550558013153673	0.1564885496183206	-129.0	-0.03435114503816794	33.0	0.10305343511450381	110.0	0.39759036144578314	1236.0	9.771084337349398	2014.0	-0.44578313253012053	2084.0	0.42272727272727273	-465.0	-0.8181818181818182	-900.0	-0.1326530612244898	130.0	95.25601302481259	39906.0	0.9999697270757156	0.007188461913990654	-5.777916045697551E-4	0.002921832351664049	1.52281600171425E12	1.522816001725E12	27.217989127306716	25990.0	152.34375	4992.0	3859.340659340659	2634.0	0.0	0.0	
0.018685473896186477	0.9235160010481757	-0.07363956713932815	0.3764245076491898	-0.08854961832061065	-139.0	0.1251908396946563	47.0	0.18931297709923672	103.0	0.4819277108433735	1236.0	9.771084337349398	2007.0	-0.44578313253012053	2084.0	0.4163636363636364	-458.0	-0.8281818181818181	-911.0	-0.1316326530612245	129.0	95.26494712015204	39909.0	0.9999563569506157	0.008628041544942455	-6.87985095990295E-4	0.0035167839938295723	1.5228160017220625E12	1.522816001731E12	27.217989127306716	25990.0	160.15625	5248.0	3857.8754578754574	2633.0	0.0	0.0	
0.02178678126349427	0.9237763899574548	-0.0717721126816808	0.3761461753051293	-0.36386768447837153	-138.0	0.08905852417302813	66.0	0.020356234096692037	112.0	0.3734939759036145	1236.0	9.771084337349398	2016.0	-0.39759036144578314	2080.0	0.43363636363636365	-477.0	-0.8072727272727273	-888.0	-0.1316326530612245	129.0	95.26494712015204	39909.0	0.9999406676070035	0.010062858049652169	-7.818261970006152E-4	0.004097426183612921	1.522816001729875E12	1.522816001732E12	27.217989127306716	25990.0	167.96875	5504.0	3837.362637362637	2619.0	0.0	0.0	
0.024891082946124448	0.9236506990828629	-0.07084121718700127	0.37663099717152154	-0.3882224645583424	-134.0	0.015267175572519083	71.0	0.1853871319520174	101.0	0.39759036144578314	1236.0	9.771084337349398	2014.0	-0.3493975903614458	2076.0	0.4172727272727273	-459.0	-0.8109090909090909	-892.0	-0.12959183673469388	127.0	95.25601302481259	39906.0	0.9999225552483567	0.011495036329454672	-8.816345464751428E-4	0.0046872556904728555	1.5228160017376875E12	1.522816001754E12	27.217989127306716	25990.0	175.78125	5760.0	3854.945054945055	2631.0	0.0	0.0	
0.028011247102016044	0.9239718332629144	-0.07008765109861449	0.37598373967514753	-0.019083969465648856	-144.0	0.16603053435114504	50.0	-0.06679389312977099	116.0	0.44578313253012053	1234.0	9.795180722891567	2010.0	-0.3373493975903615	2075.0	0.4218181818181818	-464.0	-0.81	-891.0	-0.1306122448979592	128.0	95.26792515349575	39910.0	0.9999019228577033	0.012940378600033308	-9.81589165115857E-4	0.00526571456369097	1.5228160017455E12	1.522816001754E12	27.217989127306716	25990.0	183.59375	6016.0	3859.340659340659	2634.0	0.0	0.0	
0.031125741650746875	0.924036480816051	-0.07000408274231011	0.3758404056521142	-0.13910093299406281	-135.0	0.010178117048345911	58.0	-0.013570822731128026	113.0	0.46987951807228917	1234.0	9.795180722891567	2008.0	-0.39759036144578314	2080.0	0.4172727272727273	-459.0	-0.8272727272727273	-910.0	-0.12959183673469388	127.0	95.26792515349575	39910.0	0.9998789009700778	0.014380079889511994	-0.0010894205189143664	0.005848919573187176	1.5228160017533125E12	1.522816001757E12	27.217989127306716	25990.0	191.40625	6272.0	3859.340659340659	2634.0	0.0	0.0	
0.034234677979379215	0.9240950544585396	-0.06979642531984026	0.3757349988192414	-0.23206106870229012	-138.0	0.05496183206106861	65.0	0.018320610687022943	111.0	0.46987951807228917	1236.0	9.771084337349398	2008.0	-0.43373493975903615	2083.0	0.4172727272727273	-459.0	-0.8209090909090909	-903.0	-0.1285714285714286	126.0	95.26494712015204	39909.0	0.9998535019300432	0.015817275860469097	-0.0011946707300640304	0.006431269270496474	1.522816001761125E12	1.52281600177E12	27.217989127306716	25990.0	199.21875	6528.0	3835.8974358974356	2618.0	0.0	0.0	
0.03733606437971864	0.9243635060040764	-0.06947893443976413	0.37513302498842077	-0.25676613462873005	-140.0	0.0804996530187371	68.0	-0.19708535739070085	125.0	0.45783132530120485	1235.0	9.783132530120483	2009.0	-0.4096385542168675	2081.0	0.4172727272727273	-459.0	-0.8118181818181818	-893.0	-0.1306122448979592	128.0	95.25899105581045	39907.0	0.999825757347398	0.017255045427065196	-0.0012969596508247783	0.007002588641074108	1.5228160017689375E12	1.522816001774E12	27.217989127306716	25990.0	207.03125	6784.0	3857.8754578754574	2633.0	0.0	0.0	
0.04044453512487198	0.9246313471752697	-0.06899307033705589	0.37456218184318646	-0.17430025445292616	-136.0	0.012722646310432715	64.0	-0.11959287531806607	121.0	0.42168674698795183	1236.0	9.771084337349398	2012.0	-0.42168674698795183	2082.0	0.42363636363636364	-466.0	-0.8127272727272727	-894.0	-0.1306122448979592	128.0	95.25899105581045	39907.0	0.999795536915222	0.018696868121857464	-0.0013951012382986524	0.007573980417981397	1.52281600177675E12	1.522816001785E12	27.217989127306716	25990.0	214.84375	7040.0	3856.4102564102564	2632.0	0.0	0.0	
0.04355528259842306	0.9247888310564665	-0.06818436960738627	0.3743213989265682	-0.1608925425719319	-147.0	0.17968291250734006	64.0	-0.018790369935408037	115.0	0.39759036144578314	1236.0	9.771084337349398	2014.0	-0.43373493975903615	2083.0	0.41454545454545455	-456.0	-0.8254545454545454	-908.0	-0.1316326530612245	129.0	95.25601302481259	39906.0	0.9997628765415698	0.020138127548457015	-0.0014847773738747073	0.008151192815649199	1.5228160017845625E12	1.522816001793E12	27.217989127306716	25990.0	222.65625	7296.0	3859.340659340659	2634.0	0.0	0.0	
0.04666056243699426	0.9249759015621595	-0.06703595973906665	0.3740665203289101	-0.2868047982551799	-148.0	0.1821155943293346	73.0	0.1046892039258452	107.0	0.3373493975903615	1235.0	9.783132530120483	2019.0	-0.44578313253012053	2084.0	0.42363636363636364	-466.0	-0.8054545454545454	-886.0	-0.1306122448979592	128.0	95.2709031876214	39911.0	0.9997278613332711	0.021577990288843392	-0.001563825917853569	0.00872628544095777	1.522816001792375E12	1.52281600181E12	27.217989127306716	25990.0	230.46875	7552.0	3835.8974358974356	2618.0	0.0	0.0	
0.04975502624657595	0.9251794960619669	-0.06606770027076445	0.37373514558762466	-0.3745547073791348	-137.0	0.0020356234096690954	80.0	-0.11603053435114495	121.0	0.30120481927710846	1235.0	9.783132530120483	2022.0	-0.45783132530120485	2085.0	0.41454545454545455	-456.0	-0.8145454545454546	-896.0	-0.1285714285714286	126.0	95.2709031876214	39911.0	0.9996905706294731	0.023013791046548476	-0.0016434305509679483	0.009296641985598958	1.5228160018001875E12	1.522816001811E12	27.217989127306716	25990.0	238.28125	7808.0	3844.688644688644	2624.0	0.0	0.0	
0.052848103133468646	0.9253235993718967	-0.06526697227040722	0.3735190206353958	-0.47328244274809156	-121.0	-0.24236641221374045	88.0	0.059160305343511445	110.0	0.26506024096385544	1235.0	9.783132530120483	2025.0	-0.44578313253012053	2084.0	0.4254545454545455	-468.0	-0.8127272727272727	-894.0	-0.1285714285714286	126.0	95.26494712015204	39909.0	0.9996509050625029	0.024447953222838287	-0.0017244171510878048	0.009868737326631584	1.522816001808E12	1.522816001818E12	27.217989127306716	25990.0	246.09375	8064.0	3857.8754578754574	2633.0	0.0	0.0	
0.055947222247167076	0.9254708637545104	-0.06407589813753567	0.37336036160734826	-0.3691064211944319	-134.0	-0.029636281993713463	83.0	0.10148181409968558	107.0	0.21686746987951808	1235.0	9.783132530120483	2029.0	-0.42168674698795183	2082.0	0.4218181818181818	-464.0	-0.8263636363636364	-909.0	-0.1316326530612245	129.0	95.2709031876214	39911.0	0.9996087640539427	0.025885385756037108	-0.0017922004958922369	0.010442875475314082	1.5228160018158125E12	1.522816001827E12	27.217989127306716	25990.0	253.90625	8320.0	3854.945054945055	2631.0	0.0	0.0	
0.05904561825689492	0.92552335366125	-0.06296450821355028	0.37341932533460853	-0.44020356234096686	-131.0	-0.07379134860050905	89.0	0.26378286683630187	96.0	0.20481927710843376	1235.0	9.783132530120483	2030.0	-0.42168674698795183	2082.0	0.4172727272727273	-459.0	-0.8236363636363636	-906.0	-0.1285714285714286	126.0	95.2709031876214	39911.0	0.999564233522998	0.027320080230511138	-0.0018586191361503754	0.011022786067372227	1.522816001823625E12	1.522816001863E12	27.217989127306716	25990.0	261.71875	8576.0	3837.362637362637	2619.0	0.0	0.0	
0.062156140576484206	0.9256465090698628	-0.06228800432301562	0.3732274705383274	-0.21856167135395732	-127.0	-0.13097629570108457	76.0	0.18883085576536757	100.0	0.26506024096385544	1236.0	9.771084337349398	2025.0	-0.44578313253012053	2084.0	0.41545454545454547	-457.0	-0.82	-902.0	-0.1316326530612245	129.0	95.26196908759029	39908.0	0.9995171156414686	0.028762676694285182	-0.0019354793787051577	0.011597322480378454	1.5228160018314375E12	1.522816001865E12	27.217989127306716	25990.0	269.53125	8832.0	3860.8058608058604	2635.0	0.0	0.0	
0.06524001599690739	0.9257384077815968	-0.06169367028557037	0.37309823291512	-0.6351145038167939	-124.0	-0.17022900763358786	104.0	0.1946564885496183	99.0	0.26506024096385544	1235.0	9.783132530120483	2025.0	-0.44578313253012053	2084.0	0.4218181818181818	-464.0	-0.8145454545454546	-896.0	-0.1316326530612245	129.0	95.26196908759029	39908.0	0.9994680147138404	0.030192239184430134	-0.0020120911412662896	0.012168309095498958	1.52281600183925E12	1.522816001866E12	27.217989127306716	25990.0	277.34375	9088.0	3857.8754578754574	2633.0	0.0	0.0	
0.0683287004132045	0.9259550417034275	-0.0607779555782638	0.372710746906688	-0.4827335514358415	-131.0	-0.05525263540530718	96.0	0.06324972737186471	107.0	0.21686746987951808	1235.0	9.783132530120483	2029.0	-0.3855421686746988	2079.0	0.43	-473.0	-0.81	-891.0	-0.1316326530612245	129.0	95.26196908759029	39908.0	0.9994164553503733	0.03162849867020419	-0.002076035445142639	0.012730943546916437	1.5228160018470625E12	1.522816001867E12	27.217989127306716	25990.0	285.15625	9344.0	3852.014652014652	2629.0	0.0	0.0	
0.07142258991893698	0.925936653656139	-0.060585055289978956	0.37278782771359203	-0.5676613462873006	-109.0	-0.38861901457321324	103.0	0.42678695350451074	83.0	0.30120481927710846	1233.0	9.807228915662652	2022.0	-0.3373493975903615	2075.0	0.41909090909090907	-461.0	-0.8236363636363636	-906.0	-0.12959183673469388	127.0	95.26792515349575	39910.0	0.9993624194691694	0.03305936915677201	-0.002163110943179777	0.013309906638722956	1.522816001854875E12	1.522816001868E12	27.217989127306716	25990.0	292.96875	9600.0	3837.362637362637	2619.0	0.0	0.0	
0.07452741319457774	0.9259429369464497	-0.06042806151208681	0.37279770238139803	-0.3903086624626617	-128.0	-0.08164619980086306	93.0	0.48456687686691	78.0	0.3855421686746988	1235.0	9.783132530120483	2015.0	-0.3132530120481928	2073.0	0.4172727272727273	-459.0	-0.8181818181818182	-900.0	-0.1316326530612245	129.0	95.25303499459665	39905.0	0.9993057884218075	0.034496081184599674	-0.002251252461218876	0.013888609431149723	1.5228160018626875E12	1.522816001872E12	27.217989127306716	25990.0	300.78125	9856.0	3834.432234432234	2617.0	0.0	0.0	
0.07762668533645994	0.9259872720005796	-0.060856980975625266	0.37261776656461704	-0.4198473282442748	-112.0	-0.32251908396946566	96.0	0.3269720101781171	87.0	0.49397590361445787	1235.0	9.783132530120483	2006.0	-0.3253012048192771	2074.0	0.4209090909090909	-463.0	-0.8181818181818182	-900.0	-0.13367346938775512	131.0	95.25303499459665	39905.0	0.9992468567719043	0.0359316380195758	-0.0023614698360335663	0.014458910087323786	1.5228160018705E12	1.522816001873E12	27.217989127306716	25990.0	308.59375	10112.0	3860.8058608058604	2635.0	0.0	0.0	
0.08072055514536632	0.9260147440799811	-0.06135713803520052	0.37246744201145393	-0.46412213740458025	-107.0	-0.38595419847328244	100.0	0.23755725190839697	92.0	0.5180722891566265	1238.0	9.74698795180723	2004.0	-0.26506024096385544	2069.0	0.4163636363636364	-458.0	-0.8263636363636364	-909.0	-0.12959183673469388	127.0	95.26196908759029	39908.0	0.9991856345529847	0.03736406613423636	-0.0024757188565419763	0.01502880836956068	1.5228160018783125E12	1.522816001884E12	27.217989127306716	25990.0	316.40625	10368.0	3844.688644688644	2624.0	0.0	0.0	
0.08381326133649432	0.9261029537685868	-0.061863553039061527	0.3721642377048644	-0.44627128596594234	-112.0	-0.2947739283617148	100.0	0.19788608338226665	94.0	0.5662650602409639	1236.0	9.771084337349398	2000.0	-0.21686746987951808	2065.0	0.42454545454545456	-467.0	-0.8136363636363636	-895.0	-0.1316326530612245	129.0	95.25899105581045	39907.0	0.9991220456504096	0.03879849601926881	-0.0025917343277620246	0.015591584754533126	1.522816001886125E12	1.522816001896E12	27.217989127306716	25990.0	324.21875	10624.0	3835.8974358974356	2618.0	0.0	0.0	
0.08691880392757174	0.9261739247735353	-0.0624662819214341	0.37188684393580945	-0.26180378852134584	-98.0	-0.49759683347469585	89.0	0.2363584959004806	91.0	0.5662650602409639	1236.0	9.771084337349398	2000.0	-0.22891566265060243	2066.0	0.41818181818181815	-460.0	-0.8181818181818182	-900.0	-0.12959183673469388	127.0	95.25899105581045	39907.0	0.999055788817026	0.04023829561709349	-0.0027138927698379858	0.016156892741345505	1.5228160018939375E12	1.522816001902E12	27.217989127306716	25990.0	332.03125	10880.0	3859.340659340659	2634.0	0.0	0.0	
0.09002278478589	0.9263228912604672	-0.0631503077344514	0.3713999727516722	-0.17611777535441667	-103.0	-0.4034896401308613	84.0	0.014176663031624894	105.0	0.6385542168674699	1237.0	9.759036144578314	1994.0	-0.24096385542168675	2067.0	0.42272727272727273	-465.0	-0.8172727272727273	-899.0	-0.1316326530612245	129.0	95.25601302481259	39906.0	0.9989871582983367	0.04168100535070237	-0.0028415235544881367	0.016711585557870386	1.52281600190175E12	1.522816001916E12	27.217989127306716	25990.0	339.84375	11136.0	3824.175824175824	2610.0	0.0	0.0	
0.09313703755751601	0.9265160527786246	-0.06375453006588623	0.37081446012744274	0.05896288496972883	-112.0	-0.2521716241116084	69.0	-0.1084495919978941	113.0	0.6626506024096386	1236.0	9.771084337349398	1992.0	-0.24096385542168675	2067.0	0.41818181818181815	-460.0	-0.8281818181818181	-911.0	-0.13571428571428573	133.0	95.26196908759029	39908.0	0.998915882471162	0.04313088712361881	-0.002967881054671933	0.01726203941701566	1.5228160019095625E12	1.522816001918E12	27.217989127306716	25990.0	347.65625	11392.0	3854.945054945055	2631.0	0.0	0.0	
0.09623374350249042	0.9267243269340028	-0.06429693293308687	0.37019984641276804	-0.12620865139949128	-119.0	-0.13689567430025448	81.0	-0.2880407124681933	125.0	0.6987951807228916	1236.0	9.771084337349398	1989.0	-0.27710843373493976	2070.0	0.42	-462.0	-0.8254545454545454	-908.0	-0.1316326530612245	129.0	95.26196908759029	39908.0	0.9988426066552617	0.04457387112205	-0.0030925736152673674	0.017805985840469444	1.522816001917375E12	1.52281600193E12	27.217989127306716	25990.0	355.46875	11648.0	3837.362637362637	2619.0	0.0	0.0	
0.09933017559698552	0.9270202680137833	-0.06482827989434771	0.36936528913483785	0.0	-122.0	-0.08667815808914052	73.0	-0.5688254124599853	144.0	0.7228915662650602	1236.0	9.771084337349398	1987.0	-0.3253012048192771	2074.0	0.41545454545454547	-457.0	-0.8136363636363636	-895.0	-0.13367346938775512	131.0	95.26494712015204	39909.0	0.9987669430152617	0.04602161790813341	-0.00321837874519356	0.018337018932187987	1.5228160019251875E12	1.522816001931E12	27.217989127306716	25990.0	363.28125	11904.0	3857.8754578754574	2633.0	0.0	0.0	
0.10241440291148082	0.9272963972205241	-0.06526812575875786	0.3685939004673705	-0.1984732824427481	-132.0	0.06870229007633588	86.0	-0.48998091603053434	140.0	0.7590361445783133	1236.0	9.771084337349398	1984.0	-0.3373493975903615	2075.0	0.4309090909090909	-474.0	-0.8109090909090909	-892.0	-0.1326530612244898	130.0	95.25899105581045	39907.0	0.9986891977267766	0.04746350411892139	-0.0033407376164412824	0.018866414412350877	1.522816001933E12	1.522816001942E12	27.217989127306716	25990.0	371.09375	12160.0	3857.8754578754574	2633.0	0.0	0.0	
0.1054898071397512	0.9275523906970806	-0.06572992440476819	0.3678670134028522	-0.26879481841313885	-134.0	0.0971547536433032	91.0	-0.6278047652093454	150.0	0.7710843373493976	1235.0	9.783132530120483	1983.0	-0.3132530120481928	2073.0	0.41818181818181815	-460.0	-0.8281818181818181	-911.0	-0.13571428571428573	133.0	95.25899105581045	39907.0	0.9986093100297266	0.0489009800849039	-0.0034653112390602607	0.019394114744059568	1.5228160019408125E12	1.522816001948E12	27.217989127306716	25990.0	378.90625	12416.0	3854.945054945055	2631.0	0.0	0.0	
0.10855592911575832	0.9279466037895578	-0.0659051006007832	0.3668400444747847	-0.215087561742254	-138.0	0.15536596317916473	88.0	-1.097889537494387	182.0	0.6987951807228916	1237.0	9.759036144578314	1989.0	-0.3493975903614458	2076.0	0.4209090909090909	-463.0	-0.8118181818181818	-893.0	-0.13367346938775512	131.0	95.26196908759029	39908.0	0.998527312891635	0.05034232547394909	-0.003575438512613392	0.019901555585644125	1.522816001948625E12	1.522816001959E12	27.217989127306716	25990.0	386.71875	12672.0	3834.432234432234	2617.0	0.0	0.0	
0.11163427215989488	0.9282952322495188	-0.06619087628896468	0.3659053561768352	-0.07153762268266081	-126.0	-0.03227917121046913	79.0	-0.9749182115594329	176.0	0.710843373493976	1236.0	9.771084337349398	1988.0	-0.3734939759036145	2078.0	0.41909090909090907	-461.0	-0.8172727272727273	-899.0	-0.1326530612244898	130.0	95.26494712015204	39909.0	0.9984426280624373	0.05178788021164211	-0.003692667002123668	0.02041318547824956	1.5228160019564375E12	1.522816001968E12	27.217989127306716	25990.0	394.53125	12928.0	3857.8754578754574	2633.0	0.0	0.0	
0.11468804956181448	0.9286881153034641	-0.06615142755199094	0.36491419967845584	-0.359626802374894	-143.0	0.22815945716709093	98.0	-1.1463104325699747	189.0	0.6506024096385542	1235.0	9.783132530120483	1993.0	-0.3734939759036145	2078.0	0.4263636363636364	-469.0	-0.8109090909090909	-892.0	-0.1346938775510204	132.0	95.26494712015204	39909.0	0.9983562819099726	0.0532255325199299	-0.0037913104522262074	0.020914182363174896	1.52281600196425E12	1.522816001973E12	27.217989127306716	25990.0	402.34375	13184.0	3856.4102564102564	2632.0	0.0	0.0	
0.11774084841403991	0.929051777347828	-0.06585697993805216	0.3640407301391086	-0.3499071590674646	-151.0	0.34413038993191675	98.0	-1.1611305962451	192.0	0.5662650602409639	1235.0	9.783132530120483	2000.0	-0.3373493975903615	2075.0	0.4163636363636364	-458.0	-0.8272727272727273	-910.0	-0.1326530612244898	130.0	95.26792515349575	39910.0	0.9982676369883039	0.05466208549543205	-0.003874789280443947	0.02141885522407583	1.5228160019720625E12	1.522816002012E12	27.217989127306716	25990.0	410.15625	13440.0	3854.945054945055	2631.0	0.0	0.0	
0.12078992689267236	0.9293981655657422	-0.06535847156794566	0.3632455368442556	-0.4170349537967054	-162.0	0.5030132583366813	103.0	-1.069505825632784	188.0	0.5180722891566265	1236.0	9.771084337349398	2004.0	-0.27710843373493976	2070.0	0.42	-462.0	-0.8254545454545454	-908.0	-0.1316326530612245	129.0	95.26792515349575	39910.0	0.9981767784874581	0.05609685102531978	-0.003944923261773211	0.0219248665651935	1.522816001979875E12	1.522816002015E12	27.217989127306716	25990.0	417.96875	13696.0	3835.8974358974356	2618.0	0.0	0.0	
0.1238408812654383	0.9297366809043622	-0.06496588475355693	0.36244880741843405	-0.4063417498532002	-151.0	0.322176551184185	103.0	-1.0115482481894693	186.0	0.5060240963855422	1235.0	9.783132530120483	2005.0	-0.21686746987951808	2065.0	0.4172727272727273	-459.0	-0.8172727272727273	-899.0	-0.13571428571428573	133.0	95.26792515349575	39910.0	0.9980835419641867	0.05753292361190248	-0.004020146092623109	0.02242865101347437	1.5228160019876875E12	1.522816002016E12	27.217989127306716	25990.0	425.78125	13952.0	3856.4102564102564	2632.0	0.0	0.0	
0.12688870895424376	0.9301282711173938	-0.06441571016607622	0.3615411671607397	-0.3351145038167939	-163.0	0.497328244274809	99.0	-1.245801526717557	203.0	0.4819277108433735	1236.0	9.771084337349398	2007.0	-0.14457831325301207	2059.0	0.41909090909090907	-461.0	-0.81	-891.0	-0.1346938775510204	132.0	95.26792515349575	39910.0	0.9979880819403878	0.05897180707235456	-0.004084072004153835	0.022922360948026802	1.5228160019955E12	1.522816002017E12	27.217989127306716	25990.0	433.59375	14208.0	3860.8058608058604	2635.0	0.0	0.0	
0.12994181042111516	0.9305324328100268	-0.06376963583651715	0.36061451029304875	-0.18953639918078558	-162.0	0.46993111152485567	90.0	-1.3680878793520757	213.0	0.42168674698795183	1236.0	9.771084337349398	2012.0	-0.08433734939759037	2054.0	0.41909090909090907	-461.0	-0.8272727272727273	-910.0	-0.13571428571428573	133.0	95.26494712015204	39909.0	0.9978901330788436	0.06041500938641494	-0.0041402567087288015	0.02341297117225768	1.5228160020033125E12	1.522816002019E12	27.217989127306716	25990.0	441.40625	14464.0	3865.201465201465	2638.0	0.0	0.0	
0.13300700796834855	0.9309243852115451	-0.06295852515497333	0.35974437192100395	-0.01708469647400969	-166.0	0.5198109778262449	79.0	-1.2591784805525263	208.0	0.3493975903614458	1235.0	9.783132530120483	2018.0	-0.0963855421686747	2055.0	0.4163636363636364	-458.0	-0.8254545454545454	-908.0	-0.13367346938775512	131.0	95.26494712015204	39909.0	0.9977894568761528	0.06186410878935578	-0.004183876919841974	0.023906630134972913	1.522816002011125E12	1.52281600202E12	27.217989127306716	25990.0	449.21875	14720.0	3834.432234432234	2617.0	0.0	0.0	
0.13606123239569043	0.9313217106942828	-0.061956283865301914	0.35888896622648536	-0.169359133676549	-161.0	0.43138647257234153	89.0	-1.2451624356470798	209.0	0.21686746987951808	1234.0	9.795180722891567	2029.0	-0.13253012048192772	2058.0	0.4163636363636364	-458.0	-0.8163636363636364	-898.0	-0.13367346938775512	131.0	95.26196908759029	39908.0	0.9976868099883974	0.06330952898748579	-0.004211673693726239	0.024396608765478403	1.5228160020189375E12	1.52281600203E12	27.217989127306716	25990.0	457.03125	14976.0	3849.0842490842488	2627.0	0.0	0.0	
0.13913257903182427	0.9316874834938048	-0.06088375992963777	0.358122326695511	0.01769604441360184	-159.0	0.39104788341429575	77.0	-0.9725884802220678	193.0	0.1566265060240964	1234.0	9.795180722891567	2034.0	-0.1566265060240964	2060.0	0.4209090909090909	-463.0	-0.82	-902.0	-0.1346938775510204	132.0	95.25899105581045	39907.0	0.9975812413764495	0.0647617762767948	-0.004232041869519763	0.02489315184766472	1.52281600202675E12	1.522816002036E12	27.217989127306716	25990.0	464.84375	15232.0	3859.340659340659	2634.0	0.0	0.0	
0.1421935396876432	0.932074378594406	-0.05958484514505259	0.3573331764569932	-0.05903307888040702	-166.0	0.4892281594571672	82.0	-1.0883799830364715	202.0	0.04819277108433735	1235.0	9.783132530120483	2043.0	-0.14457831325301207	2059.0	0.42	-462.0	-0.8136363636363636	-895.0	-0.1326530612244898	130.0	95.25899105581045	39907.0	0.997473689083879	0.0662116640840359	-0.0042327220250308875	0.025383837158287015	1.5228160020345625E12	1.522816002043E12	27.217989127306716	25990.0	472.65625	15488.0	3838.8278388278386	2620.0	0.0	0.0	
0.14527673997373694	0.9323963317055812	-0.05825968481886506	0.35671121337410017	0.1407235313640892	-164.0	0.44805841354132103	69.0	-0.6372386325921007	174.0	-0.012048192771084338	1235.0	9.783132530120483	2048.0	-0.13253012048192772	2058.0	0.4209090909090909	-463.0	-0.8254545454545454	-908.0	-0.13673469387755102	134.0	95.26494712015204	39909.0	0.9973629933858186	0.06766820640303046	-0.004228168047472878	0.02588814133225913	1.522816002042375E12	1.522816002057E12	27.217989127306716	25990.0	480.46875	15744.0	3831.501831501831	2615.0	0.0	0.0	
0.14836433992709297	0.9326953191269872	-0.05685953741488751	0.35615507111869343	0.19879811596556785	-167.0	0.4843267825239563	65.0	-0.5320773103784309	168.0	-0.060240963855421686	1234.0	9.795180722891567	2052.0	-0.16867469879518074	2061.0	0.4172727272727273	-459.0	-0.82	-902.0	-0.1316326530612245	129.0	95.26196908759029	39908.0	0.9972497643877648	0.06912592203399417	-0.004214096360973966	0.026396130840676473	1.5228160020501875E12	1.522816002058E12	27.217989127306716	25990.0	488.28125	16000.0	3859.340659340659	2634.0	0.0	0.0	
0.15145196012834267	0.9329693043776074	-0.05561782010851781	0.35563314690216175	0.11832061068702289	-150.0	0.2146946564885496	70.0	-0.30725190839694655	154.0	-0.07228915662650603	1233.0	9.807228915662652	2053.0	-0.16867469879518074	2061.0	0.4209090909090909	-463.0	-0.8081818181818182	-889.0	-0.13571428571428573	133.0	95.26196908759029	39908.0	0.9971341578605889	0.07058251144382459	-0.004207689798442909	0.026904937325639686	1.522816002058E12	1.522816002061E12	27.217989127306716	25990.0	496.09375	16256.0	3859.340659340659	2634.0	0.0	0.0	
0.15454227306188106	0.9332462557162493	-0.054379357474938654	0.35509760865459156	0.207508957781586	-151.0	0.22558030845926147	64.0	-0.3773173391493999	159.0	-0.08433734939759037	1234.0	9.795180722891567	2054.0	-0.14457831325301207	2059.0	0.42	-462.0	-0.8109090909090909	-892.0	-0.13367346938775512	131.0	95.26196908759029	39908.0	0.997016070883722	0.07204125787149915	-0.004197774478861249	0.02741149855994295	1.5228160020658125E12	1.522816002075E12	27.217989127306716	25990.0	503.90625	16512.0	3854.945054945055	2631.0	0.0	0.0	
0.15765109776086783	0.9334842060030278	-0.053193721519753275	0.3546514699444414	0.4170992366412212	-148.0	0.17526717557251892	50.0	-0.12549618320610642	143.0	-0.0963855421686747	1233.0	9.807228915662652	2055.0	-0.13253012048192772	2058.0	0.42	-462.0	-0.8254545454545454	-908.0	-0.13571428571428573	133.0	95.26694734754697	39908.0	0.9968948747209676	0.07350622826994438	-0.004188683441470197	0.027926655575276942	1.522816002073625E12	1.522816002079E12	27.23614479017266	25993.0	511.71875	16768.0	3831.501831501831	2615.0	0.0	0.0	
0.16077178384290164	0.9336390204362828	-0.05212506460694908	0.3544025354854269	0.4089208202364917	-144.0	0.11076186199670701	50.0	0.4113156713066901	108.0	-0.07228915662650603	1235.0	9.783132530120483	2053.0	-0.1566265060240964	2060.0	0.4163636363636364	-458.0	-0.8181818181818182	-900.0	-0.1346938775510204	132.0	95.26694734754697	39908.0	0.9967707936504233	0.07497060249391004	-0.004185608584344354	0.028458291726384703	1.5228160020814375E12	1.52281600209E12	27.23614479017266	25993.0	519.53125	17024.0	3856.4102564102564	2632.0	0.0	0.0	
0.16388753694013514	0.9338259647134243	-0.05113869316468324	0.35405352941113405	0.4010569583088668	-138.0	0.01702877275396356	50.0	0.2660011743981211	117.0	-0.060240963855421686	1234.0	9.795180722891567	2052.0	-0.18072289156626506	2062.0	0.4209090909090909	-463.0	-0.8109090909090909	-892.0	-0.13673469387755102	134.0	95.27885995412214	39912.0	0.996644487662617	0.07643561018436197	-0.004185809094816693	0.02898002259636457	1.52281600208925E12	1.522816002093E12	27.23614479017266	25993.0	527.34375	17280.0	3857.8754578754574	2633.0	0.0	0.0	
0.16700144407341816	0.9339569490138746	-0.05024820289413873	0.35383546387353704	0.28661961688031123	-140.0	0.04724182629987043	57.0	0.5205242690479616	100.0	-0.024096385542168676	1234.0	9.795180722891567	2049.0	-0.20481927710843376	2064.0	0.41909090909090907	-461.0	-0.8236363636363636	-906.0	-0.13775510204081634	135.0	95.26694734754697	39908.0	0.9965158398202757	0.07789548654086847	-0.004190887188511154	0.02951119496776034	1.5228160020970625E12	1.522816002107E12	27.23614479017266	25993.0	535.15625	17536.0	3852.014652014652	2629.0	0.0	0.0	
0.17011865361618714	0.9340829930867446	-0.04944693889516356	0.35361555715211407	0.34238054848741867	-134.0	-0.045236075770426896	53.0	0.5414192818772975	98.0	0.0	1234.0	9.795180722891567	2047.0	-0.1927710843373494	2063.0	0.4218181818181818	-464.0	-0.8272727272727273	-910.0	-0.13673469387755102	134.0	95.26694734754697	39908.0	0.9963846360402767	0.07935669761070983	-0.004200853464542567	0.030042044493959665	1.522816002104875E12	1.522816002111E12	27.23614479017266	25993.0	542.96875	17792.0	3831.501831501831	2615.0	0.0	0.0	
0.17324664515793092	0.9341825069219561	-0.048710074820651775	0.3534549085412611	0.4124913254684249	-132.0	-0.07494795281054818	48.0	0.8521859819569746	77.0	0.03614457831325302	1234.0	9.795180722891567	2044.0	-0.22891566265060243	2066.0	0.4309090909090909	-474.0	-0.8172727272727273	-899.0	-0.1346938775510204	132.0	95.27588180130535	39911.0	0.9962505454065363	0.08082082956235376	-0.004214153686115089	0.030579162754090315	1.5228160021126875E12	1.522816002127E12	27.23614479017266	25993.0	550.78125	18048.0	3853.4798534798533	2630.0	0.0	0.0	
0.17638712834487885	0.9342331467111719	-0.04819450466246119	0.353391733500526	0.4814612868047983	-126.0	-0.16521264994547455	43.0	1.1881134133042532	54.0	0.13253012048192772	1235.0	9.783132530120483	2036.0	-0.26506024096385544	2069.0	0.42272727272727273	-465.0	-0.8109090909090909	-892.0	-0.13571428571428573	133.0	95.26992549801776	39909.0	0.9961134677538765	0.08228658182211153	-0.004244937214275277	0.031126489031478424	1.5228160021205E12	1.522816002128E12	27.23614479017266	25993.0	558.59375	18304.0	3859.340659340659	2634.0	0.0	0.0	
0.17951393715683922	0.9343190344829709	-0.047746039191243136	0.3532255052290865	0.3966787197000134	-128.0	-0.13177983125753298	48.0	0.8924601580286596	72.0	0.18072289156626506	1235.0	9.783132530120483	2032.0	-0.3132530120481928	2073.0	0.42272727272727273	-465.0	-0.8109090909090909	-892.0	-0.13673469387755102	134.0	95.26992549801776	39909.0	0.995974546910749	0.08374908695490875	-0.004279787781689235	0.03166189755354012	1.5228160021283125E12	1.52281600213E12	27.23614479017266	25993.0	566.40625	18560.0	3849.0842490842488	2627.0	0.0	0.0	
0.1826442280725561	0.9343761437468187	-0.047330045414842994	0.3531304133006221	0.43564095814688064	-133.0	-0.0531718873387733	45.0	0.9839431429323504	65.0	0.21686746987951808	1234.0	9.795180722891567	2029.0	-0.3373493975903615	2075.0	0.42	-462.0	-0.8263636363636364	-909.0	-0.13367346938775512	131.0	95.26992549801776	39909.0	0.9958330328998044	0.08521065046472229	-0.004316274536024989	0.032203810443576175	1.522816002136125E12	1.522816002163E12	27.23614479017266	25993.0	574.21875	18816.0	3830.03663003663	2614.0	0.0	0.0	
0.18576943991811967	0.9344255273211859	-0.0469946211031651	0.35304452902982497	0.3366541596584292	-132.0	-0.06753784448182149	51.0	1.089403545089921	57.0	0.2530120481927711	1236.0	9.771084337349398	2026.0	-0.3132530120481928	2073.0	0.41909090909090907	-461.0	-0.82	-902.0	-0.13775510204081634	135.0	95.27290364927055	39910.0	0.9956893149649678	0.0866691038958714	-0.004358808251540135	0.03274530936036549	1.5228160021439375E12	1.522816002165E12	27.23614479017266	25993.0	582.03125	19072.0	3856.4102564102564	2632.0	0.0	0.0	
0.18889491238533457	0.9344856808868431	-0.04668693831370943	0.35292611409237323	0.3768447837150128	-134.0	-0.03587786259541976	48.0	1.055979643765903	58.0	0.28915662650602414	1234.0	9.795180722891567	2023.0	-0.3373493975903615	2075.0	0.42	-462.0	-0.8109090909090909	-892.0	-0.13571428571428573	133.0	95.27290364927055	39910.0	0.9955431535296885	0.08812863628880918	-0.004402909846817854	0.03328343898876261	1.52281600215175E12	1.522816002167E12	27.23614479017266	25993.0	589.84375	19328.0	3859.340659340659	2634.0	0.0	0.0	
0.19201574402727908	0.9345271685276354	-0.04653099715040934	0.3528368427303043	0.29433112251282695	-127.0	-0.1421599299211615	53.0	1.1150043799274183	53.0	0.3614457831325301	1235.0	9.783132530120483	2017.0	-0.27710843373493976	2070.0	0.42363636363636364	-466.0	-0.8254545454545454	-908.0	-0.13877551020408163	136.0	95.27290364927055	39910.0	0.9953947832731052	0.08958419276016027	-0.0044604822186306205	0.03382309770815745	1.5228160021595625E12	1.522816002168E12	27.23614479017266	25993.0	597.65625	19584.0	3852.014652014652	2629.0	0.0	0.0	
0.19513132700782942	0.934578597660219	-0.046484441328630485	0.352706735844143	0.2895838463432652	-118.0	-0.2772716079783304	53.0	0.9443486825904948	63.0	0.4096385542168675	1235.0	9.783132530120483	2013.0	-0.2530120481927711	2068.0	0.4172727272727273	-459.0	-0.8245454545454546	-907.0	-0.13673469387755102	134.0	95.27588180130535	39911.0	0.9952442449746791	0.09103818744014054	-0.0045280935100812545	0.03435749760327087	1.522816002167375E12	1.522816002185E12	27.23614479017266	25993.0	605.46875	19840.0	3831.501831501831	2615.0	0.0	0.0	
0.19824152249718063	0.9346324214292644	-0.04637350966714914	0.3525786925133273	0.25445292620865123	-137.0	0.0172058645341088	55.0	0.914091845389555	64.0	0.44578313253012053	1235.0	9.783132530120483	2010.0	-0.21686746987951808	2065.0	0.41818181818181815	-460.0	-0.8227272727272728	-905.0	-0.13571428571428573	133.0	95.27588180130535	39911.0	0.9950915580759935	0.09248985233842293	-0.004589054438075324	0.03489066980831231	1.5228160021751875E12	1.522816002186E12	27.23614479017266	25993.0	613.28125	20096.0	3846.1538461538457	2625.0	0.0	0.0	
0.2013362199945541	0.9347250928204214	-0.04623815718212366	0.35235072537493595	0.11307251908396947	-133.0	-0.04413167938931298	64.0	0.7166030534351144	76.0	0.43373493975903615	1236.0	9.771084337349398	2011.0	-0.21686746987951808	2065.0	0.4290909090909091	-472.0	-0.8090909090909091	-890.0	-0.13571428571428573	133.0	95.26694734754697	39908.0	0.9949372435087857	0.09393815805313994	-0.004646850021276507	0.03541060188138998	1.522816002183E12	1.522816002193E12	27.23614479017266	25993.0	621.09375	20352.0	3846.1538461538457	2625.0	0.0	0.0	
0.20444335245923045	0.9348175634636253	-0.04606284163067006	0.35212829716005134	0.3250733998825601	-134.0	-0.028185554903112055	50.0	0.7361127422196125	74.0	0.39759036144578314	1234.0	9.795180722891567	2014.0	-0.2530120481927711	2068.0	0.42	-462.0	-0.8209090909090909	-903.0	-0.13673469387755102	134.0	95.27588180130535	39911.0	0.9947799123395089	0.0953922855814134	-0.004700424890653301	0.03593249035622709	1.5228160021908125E12	1.5228160022E12	27.23614479017266	25993.0	628.90625	20608.0	3853.4798534798533	2630.0	0.0	0.0	
0.20754997349279422	0.9349135512975826	-0.04593493611671006	0.35189008687955353	0.3506823964839232	-126.0	-0.14989590562109636	48.0	0.6944251677076102	76.0	0.4096385542168675	1235.0	9.783132530120483	2013.0	-0.26506024096385544	2069.0	0.4218181818181818	-464.0	-0.8254545454545454	-908.0	-0.13571428571428573	133.0	95.27588180130535	39911.0	0.9946202066910198	0.09684659524932633	-0.004758346009344216	0.03645188025029167	1.522816002198625E12	1.522816002206E12	27.23614479017266	25993.0	636.71875	20864.0	3831.501831501831	2615.0	0.0	0.0	
0.21065618970386737	0.9350120115777406	-0.045751678892370015	0.35165227439032165	0.3607155064372793	-137.0	0.020280277999316376	47.0	0.7451293152557821	72.0	0.4096385542168675	1236.0	9.771084337349398	2013.0	-0.27710843373493976	2070.0	0.4209090909090909	-463.0	-0.8190909090909091	-901.0	-0.13673469387755102	134.0	95.28183810772092	39913.0	0.9944581225298879	0.09830103957103824	-0.004810031894297611	0.036970417184009084	1.5228160022064375E12	1.522816002215E12	27.23614479017266	25993.0	644.53125	21120.0	3854.945054945055	2631.0	0.0	0.0	
0.21376191405792785	0.9351072332288675	-0.04560340024766485	0.351418258274848	0.35541086663673105	-130.0	-0.08688819039066002	47.0	0.7952402334979791	68.0	0.4096385542168675	1235.0	9.783132530120483	2013.0	-0.26506024096385544	2069.0	0.41818181818181815	-460.0	-0.8145454545454546	-896.0	-0.13673469387755102	134.0	95.26992549801776	39909.0	0.9942936658273495	0.09975497677319292	-0.0048648603826712345	0.03748844939509038	1.52281600221425E12	1.522816002225E12	27.23614479017266	25993.0	652.34375	21376.0	3856.4102564102564	2632.0	0.0	0.0	
0.21685221665112148	0.9352057789572248	-0.04544798179280184	0.3511760697370851	0.16705387764133206	-128.0	-0.11616329239960163	59.0	0.7226463104325699	72.0	0.39759036144578314	1236.0	9.771084337349398	2014.0	-0.24096385542168675	2067.0	0.41909090909090907	-461.0	-0.8145454545454546	-896.0	-0.13673469387755102	134.0	95.26992549801776	39909.0	0.994127645957619	0.10120215829928422	-0.0049180981889425344	0.038002092159952865	1.5228160022220625E12	1.522816002237E12	27.23614479017266	25993.0	660.15625	21632.0	3847.6190476190473	2626.0	0.0	0.0	
0.21993744911864607	0.935316884412917	-0.045228590628500945	0.3509083930627657	0.19520174482006553	-143.0	0.11450381679389313	57.0	0.5291166848418759	84.0	0.4096385542168675	1235.0	9.783132530120483	2013.0	-0.16867469879518074	2061.0	0.41818181818181815	-460.0	-0.8236363636363636	-906.0	-0.13571428571428573	133.0	95.27588180130535	39911.0	0.9939595308353111	0.10264842261615385	-0.004963711831291799	0.03851121863716968	1.522816002229875E12	1.522816002245E12	27.23614479017266	25993.0	667.96875	21888.0	3834.432234432234	2617.0	0.0	0.0	
0.22303144339614273	0.9354121390266326	-0.04503750650309255	0.35067898877690373	0.29932265347812054	-146.0	0.15869261369745197	50.0	0.6896032684657565	73.0	0.44578313253012053	1235.0	9.783132530120483	2010.0	-0.10843373493975904	2056.0	0.4163636363636364	-458.0	-0.8190909090909091	-901.0	-0.1346938775510204	132.0	95.26992549801776	39909.0	0.9937885629046058	0.10409709199045876	-0.005011986975443589	0.039025218329768824	1.5228160022376875E12	1.522816002251E12	27.23614479017266	25993.0	675.78125	22144.0	3859.340659340659	2634.0	0.0	0.0	
0.22613138484907985	0.9355248193903085	-0.044838825365210985	0.3504037557512792	0.4325699745547075	-140.0	0.0648854961832061	41.0	0.6494910941475828	75.0	0.42168674698795183	1234.0	9.795180722891567	2012.0	-0.1566265060240964	2060.0	0.41818181818181815	-460.0	-0.8181818181818182	-900.0	-0.13571428571428573	133.0	95.26992549801776	39909.0	0.993614881148965	0.10555053523695006	-0.005058937955038482	0.03953428407456763	1.5228160022455E12	1.522816002252E12	27.23614479017266	25993.0	683.59375	22400.0	3859.340659340659	2634.0	0.0	0.0	
0.22922955610544168	0.935645769250398	-0.04462700486949863	0.350107733305347	0.44191153403743594	-139.0	0.04872947819721836	40.0	0.6253267802990691	76.0	0.4096385542168675	1235.0	9.783132530120483	2013.0	-0.1927710843373494	2063.0	0.4218181818181818	-464.0	-0.8209090909090909	-903.0	-0.13673469387755102	134.0	95.27885995412214	39912.0	0.9934389135479896	0.10700419501500368	-0.005103722892710893	0.04003972165756716	1.5228160022533125E12	1.522816002259E12	27.23614479017266	25993.0	691.40625	22656.0	3837.362637362637	2619.0	0.0	0.0	
0.2323205733005045	0.9357808217273169	-0.044400378069736714	0.3497754424121263	0.42067258097792437	-136.0	0.0022694450175365735	41.0	0.44893748710542597	87.0	0.3855421686746988	1235.0	9.783132530120483	2015.0	-0.21686746987951808	2065.0	0.41818181818181815	-460.0	-0.8245454545454546	-907.0	-0.13571428571428573	133.0	95.26992549801776	39909.0	0.9932609766070908	0.10845628005763487	-0.005145969789921013	0.040538705708361836	1.522816002261125E12	1.52281600227E12	27.23614479017266	25993.0	699.21875	22912.0	3831.501831501831	2615.0	0.0	0.0	
0.2354053284438238	0.9359264484951101	-0.044141754200489866	0.3494183574791648	0.33872773536895673	-137.0	0.017506361323155348	46.0	0.5040203562340967	83.0	0.3734939759036145	1237.0	9.759036144578314	2016.0	-0.20481927710843376	2064.0	0.4263636363636364	-469.0	-0.8063636363636364	-887.0	-0.13673469387755102	134.0	95.26992549801776	39909.0	0.993081034851262	0.10990685232743316	-0.005183613806606128	0.04103257459782905	1.5228160022689375E12	1.522816002315E12	27.23614479017266	25993.0	707.03125	23168.0	3857.8754578754574	2633.0	0.0	0.0	
0.2384904992712802	0.936063664412891	-0.04385468099362078	0.3490867845118938	0.3648051426275612	-140.0	0.0630775411811971	44.0	0.527922860586581	81.0	0.3493975903614458	1235.0	9.783132530120483	2018.0	-0.20481927710843376	2064.0	0.4209090909090909	-463.0	-0.8163636363636364	-898.0	-0.13673469387755102	134.0	95.26694734754697	39908.0	0.9928987059015884	0.11135680184619036	-0.005217077862430985	0.04152835898656144	1.52281600227675E12	1.522816002319E12	27.23614479017266	25993.0	714.84375	23424.0	3825.6410256410254	2611.0	0.0	0.0	
0.24158655551620803	0.9361638828971449	-0.04372267615313933	0.34883450510086056	0.43640329136512335	-132.0	-0.05987905224546461	39.0	0.8264102309903836	61.0	0.44578313253012053	1235.0	9.783132530120483	2010.0	-0.20481927710843376	2064.0	0.41909090909090907	-461.0	-0.8236363636363636	-906.0	-0.13775510204081634	135.0	95.26992549801776	39909.0	0.9927133584503515	0.11280750687219049	-0.005268571219979145	0.04203446805664255	1.5228160022845625E12	1.52281600232E12	27.23614479017266	25993.0	722.65625	23680.0	3852.014652014652	2629.0	0.0	0.0	
0.24467470408986774	0.9362897961756244	-0.04366384136460314	0.3485037826691324	0.44607555294578166	-127.0	-0.13544724995106658	38.0	0.5257388921511058	80.0	0.5060240963855422	1236.0	9.771084337349398	2005.0	-0.21686746987951808	2065.0	0.42	-462.0	-0.8227272727272728	-905.0	-0.13775510204081634	135.0	95.26992549801776	39909.0	0.9925261145740589	0.11425771101994	-0.0053284042921701675	0.042528760488698754	1.522816002292375E12	1.522816002321E12	27.23614479017266	25993.0	730.46875	23936.0	3832.9670329670325	2616.0	0.0	0.0	
0.247763368699178	0.9364571221525405	-0.04355123906112462	0.34806802201008813	0.5931007826843174	-130.0	-0.08793120108223033	28.0	0.24427480916030533	98.0	0.49397590361445787	1237.0	9.759036144578314	2006.0	-0.26506024096385544	2069.0	0.42363636363636364	-466.0	-0.81	-891.0	-0.13673469387755102	134.0	95.27290364927055	39910.0	0.9923364724698559	0.11571338561422533	-0.005381411706147868	0.04300904792977096	1.5228160023001875E12	1.522816002322E12	27.23614479017266	25993.0	738.28125	24192.0	3835.8974358974356	2618.0	0.0	0.0	
0.25084753521578607	0.9366019244236237	-0.04344792007211258	0.34769111781490647	0.5093511450381679	-132.0	-0.05629770992366412	33.0	0.3480916030534353	91.0	0.5060240963855422	1234.0	9.795180722891567	2005.0	-0.27710843373493976	2070.0	0.41818181818181815	-460.0	-0.8163636363636364	-898.0	-0.1346938775510204	132.0	95.26694734754697	39908.0	0.9921447450284551	0.1171643895180832	-0.0054351255302109505	0.043494484153139716	1.522816002308E12	1.522816002323E12	27.23614479017266	25993.0	746.09375	24448.0	3850.5494505494503	2628.0	0.0	0.0	
0.2539129482261791	0.9367656605791969	-0.04331045393836514	0.3472669027409311	0.30458957685420796	-141.0	0.08180190368485535	46.0	0.2216567712750921	99.0	0.5180722891566265	1236.0	9.771084337349398	2004.0	-0.24096385542168675	2067.0	0.43	-473.0	-0.8118181818181818	-893.0	-0.13979591836734695	137.0	95.26694734754697	39908.0	0.9919518455344963	0.11860924227030709	-0.005483783554615288	0.0439694428745299	1.5228160023158125E12	1.522816002325E12	27.23614479017266	25993.0	753.90625	24704.0	3850.5494505494503	2628.0	0.0	0.0	
0.25697829731591676	0.9369182666125327	-0.04318048674145527	0.34687116809061863	0.3314094209644386	-129.0	-0.10240178737665255	44.0	0.18841928877304043	101.0	0.46987951807228917	1236.0	9.771084337349398	2008.0	-0.22891566265060243	2066.0	0.41818181818181815	-460.0	-0.8236363636363636	-906.0	-0.13571428571428573	133.0	95.26396919785819	39907.0	0.9917566198536661	0.1200528584003825	-0.005532970212198209	0.04444664674595349	1.522816002323625E12	1.522816002331E12	27.23614479017266	25993.0	761.71875	24960.0	3832.9670329670325	2616.0	0.0	0.0	
0.2600390491143347	0.9370792315216766	-0.042921741306441205	0.34646823515868697	0.31214936080198685	-142.0	0.09730525154051319	45.0	0.17088200128759315	102.0	0.39759036144578314	1235.0	9.783132530120483	2014.0	-0.20481927710843376	2064.0	0.41909090909090907	-461.0	-0.8227272727272728	-905.0	-0.13673469387755102	134.0	95.27290364927055	39910.0	0.991559362476564	0.1214956043948322	-0.005564954089566843	0.04492082015931626	1.5228160023314375E12	1.522816002344E12	27.23614479017266	25993.0	769.53125	25216.0	3857.8754578754574	2633.0	0.0	0.0	
0.2631025917604132	0.9372529564344211	-0.04256626295486769	0.34604191785533583	0.38476917484551065	-144.0	0.12668120683387843	40.0	0.21464921846601215	99.0	0.3253012048192771	1236.0	9.771084337349398	2020.0	-0.16867469879518074	2061.0	0.42818181818181816	-471.0	-0.8145454545454546	-896.0	-0.13673469387755102	134.0	95.27290364927055	39910.0	0.9913595997780833	0.12294152466021563	-0.005583510012779831	0.04539107685434842	1.52281600233925E12	1.522816002347E12	27.23614479017266	25993.0	777.34375	25472.0	3856.4102564102564	2632.0	0.0	0.0	
0.2661657122728451	0.9374279966674167	-0.042302036159876474	0.34559989699193905	0.395509654243377	-125.0	-0.16488549618320628	39.0	0.21212393354288275	99.0	0.3253012048192771	1237.0	9.759036144578314	2020.0	-0.1566265060240964	2060.0	0.4209090909090909	-463.0	-0.8109090909090909	-892.0	-0.13979591836734695	137.0	95.27290364927055	39910.0	0.9911575390364002	0.12438766250023535	-0.005613072593984283	0.04585777627719065	1.5228160023470625E12	1.522816002359E12	27.23614479017266	25993.0	785.15625	25728.0	3850.5494505494503	2628.0	0.0	0.0	
0.26922713425821254	0.9375928186603412	-0.04201893258451006	0.3451870734847796	0.42144505592046894	-137.0	0.0202378838984557	37.0	0.14858867388602903	103.0	0.3493975903614458	1236.0	9.771084337349398	2018.0	-0.12048192771084337	2057.0	0.41818181818181815	-460.0	-0.8281818181818181	-911.0	-0.13775510204081634	135.0	95.27290364927055	39910.0	0.9909532673377034	0.1258318795634884	-0.005639251025743863	0.046326654164940945	1.522816002354875E12	1.52281600236E12	27.23614479017266	25993.0	792.96875	25984.0	3834.432234432234	2617.0	0.0	0.0	
0.2723057560748837	0.9377572924489823	-0.04176797145627746	0.3447704990558265	0.6608756690357112	-128.0	-0.11739931560937067	21.0	0.29955251381942616	93.0	0.3614457831325301	1235.0	9.783132530120483	2017.0	-0.13253012048192772	2058.0	0.42727272727272725	-470.0	-0.8272727272727273	-910.0	-0.13775510204081634	135.0	95.27290364927055	39910.0	0.9907455065081427	0.12728424456222884	-0.00566927576732041	0.046796599581816596	1.5228160023626875E12	1.522816002373E12	27.23614479017266	25993.0	800.78125	26240.0	3847.6190476190473	2626.0	0.0	0.0	
0.2753728187951794	0.9379307904639707	-0.04148986605027427	0.3443318505668119	0.5464954892435808	-127.0	-0.13133240804996518	28.0	0.21981263011797375	98.0	0.3132530120481928	1235.0	9.783132530120483	2021.0	-0.12048192771084337	2057.0	0.4172727272727273	-459.0	-0.8172727272727273	-899.0	-0.14081632653061227	138.0	95.26992549801776	39909.0	0.9905361913991633	0.12873267876054922	-0.005694558332418181	0.04726016243065814	1.5228160023705E12	1.522816002375E12	27.23614479017266	25993.0	808.59375	26496.0	3856.4102564102564	2632.0	0.0	0.0	
0.27844253677552816	0.9380878484158052	-0.041236931865473885	0.34393415664182747	0.555622266060554	-131.0	-0.06878806072561969	27.0	0.3852817565828971	87.0	0.3614457831325301	1233.0	9.807228915662652	2017.0	-0.12048192771084337	2057.0	0.4172727272727273	-459.0	-0.8081818181818182	-889.0	-0.13775510204081634	135.0	95.26694734754697	39908.0	0.9903243625914728	0.13018028929420902	-0.00572252985572575	0.04772841699783663	1.5228160023783125E12	1.522816002382E12	27.23614479017266	25993.0	816.40625	26752.0	3847.6190476190473	2626.0	0.0	0.0	
0.2815074064196671	0.9382585321856294	-0.04104139425741898	0.3434916749184298	0.6105173876166241	-123.0	-0.19016115351993204	23.0	0.07565733672603912	107.0	0.39759036144578314	1236.0	9.771084337349398	2014.0	-0.07228915662650603	2053.0	0.41818181818181815	-460.0	-0.8245454545454546	-907.0	-0.13673469387755102	134.0	95.26694734754697	39908.0	0.9901105408739187	0.13162773019691362	-0.005757672736145087	0.04818824232349628	1.522816002386125E12	1.522816002395E12	27.23614479017266	25993.0	824.21875	27008.0	3835.8974358974356	2618.0	0.0	0.0	
0.28459219745302533	0.9384276937052206	-0.04081325845659169	0.3430564700180727	0.8786175656404664	-126.0	-0.14226994379666127	5.0	0.3038335710091436	92.0	0.3734939759036145	1236.0	9.771084337349398	2016.0	-0.07228915662650603	2053.0	0.4218181818181818	-464.0	-0.8227272727272728	-905.0	-0.14081632653061227	138.0	95.27290364927055	39910.0	0.9898929814837807	0.13308441699974433	-0.00578798850885316	0.0486510261968961	1.5228160023939375E12	1.522816002399E12	27.23614479017266	25993.0	832.03125	27264.0	3857.8754578754574	2633.0	0.0	0.0	
0.28766171738348134	0.9386021994235816	-0.04066742200242037	0.34259607707167206	0.7316627945569201	-115.0	-0.3086624626617987	14.0	0.10205774975107872	105.0	0.42168674698795183	1235.0	9.783132530120483	2012.0	-0.04819277108433735	2051.0	0.4172727272727273	-459.0	-0.8190909090909091	-901.0	-0.13979591836734695	137.0	95.26396919785819	39907.0	0.989674161628736	0.1345349770653165	-0.005829083598739874	0.049106165955940126	1.52281600240175E12	1.52281600241E12	27.23614479017266	25993.0	839.84375	27520.0	3857.8754578754574	2633.0	0.0	0.0	
0.2907309627416956	0.9387769675531227	-0.04043653354153937	0.342144256048388	0.7390626282524833	-124.0	-0.16793893129770993	13.0	0.19256340802757957	99.0	0.3614457831325301	1235.0	9.783132530120483	2017.0	-0.10843373493975904	2056.0	0.4163636363636364	-458.0	-0.8163636363636364	-898.0	-0.14081632653061227	138.0	95.26396919785819	39907.0	0.9894530304948501	0.1359856608425757	-0.005857396299529525	0.04956098665639522	1.5228160024095625E12	1.522816002413E12	27.23614479017266	25993.0	847.65625	27776.0	3854.945054945055	2631.0	0.0	0.0	
0.29381270463866094	0.9389525969256076	-0.040238089809804256	0.3416854062659212	0.9296735423095666	-111.0	-0.36462562936495035	0.0	0.26685073899626444	94.0	0.3734939759036145	1236.0	9.771084337349398	2016.0	-0.1566265060240964	2060.0	0.42454545454545456	-467.0	-0.8109090909090909	-892.0	-0.13571428571428573	133.0	95.27290364927055	39910.0	0.9892286545404025	0.1374424848131267	-0.005889991747934236	0.05001540164576771	1.522816002417375E12	1.522816002427E12	27.23614479017266	25993.0	855.46875	28032.0	3834.432234432234	2617.0	0.0	0.0	
0.2968990536817002	0.939142255669767	-0.03995805506931513	0.3411966844073776	1.1030936118923265	-133.0	-0.024909602249899396	-12.0	0.1113700281237443	104.0	0.3614457831325301	1235.0	9.783132530120483	2017.0	-0.20481927710843376	2064.0	0.4218181818181818	-464.0	-0.8236363636363636	-906.0	-0.13979591836734695	137.0	95.26694734754697	39908.0	0.9890015891702716	0.13890373244069423	-0.005909991757574957	0.05046465822877367	1.5228160024251875E12	1.522816002428E12	27.23614479017266	25993.0	863.28125	28288.0	3847.6190476190473	2626.0	0.0	0.0	
0.299968668197289	0.939331518341231	-0.0396508089190418	0.34071118561447716	0.8931297709923663	-127.0	-0.11625318066157775	1.0	0.06440839694656489	107.0	0.3132530120481928	1235.0	9.783132530120483	2021.0	-0.21686746987951808	2065.0	0.4209090909090909	-463.0	-0.8154545454545454	-897.0	-0.13571428571428573	133.0	95.26694734754697	39908.0	0.9887734188977519	0.1403573976212939	-0.005924728644561669	0.05090996567192967	1.522816002433E12	1.522816002462E12	27.23614479017266	25993.0	871.09375	28544.0	3857.8754578754574	2633.0	0.0	0.0	
0.3030376584378918	0.939526310577265	-0.03933849360313265	0.34020992733032823	0.9144565987251123	-123.0	-0.17612339655308115	-1.0	0.0790115684268516	106.0	0.27710843373493976	1236.0	9.771084337349398	2024.0	-0.24096385542168675	2067.0	0.4163636363636364	-458.0	-0.8118181818181818	-893.0	-0.13979591836734695	137.0	95.26992549801776	39909.0	0.9885429665520777	0.1418118513436174	-0.005937741757866942	0.05135119591334077	1.5228160024408125E12	1.522816002463E12	27.23614479017266	25993.0	878.90625	28800.0	3852.014652014652	2629.0	0.0	0.0	
0.30610485538072807	0.9396903473008686	-0.039050866797295115	0.3397897599868805	0.7829880043620497	-121.0	-0.20486057018227122	7.0	0.44461754167315803	82.0	0.28915662650602414	1236.0	9.771084337349398	2023.0	-0.27710843373493976	2070.0	0.4209090909090909	-463.0	-0.8145454545454546	-896.0	-0.13877551020408163	136.0	95.27588180130535	39911.0	0.9883103232087057	0.14326104051149108	-0.005953522696413215	0.05180284623620217	1.522816002448625E12	1.522816002464E12	27.23614479017266	25993.0	886.71875	29056.0	3830.03663003663	2614.0	0.0	0.0	
0.3091622100430884	0.9398431445457233	-0.03880623142533647	0.33939496173776257	0.6682088056133856	-121.0	-0.2027912714935617	14.0	0.3943249286760736	85.0	0.3373493975903615	1235.0	9.783132530120483	2019.0	-0.2530120481927711	2068.0	0.41818181818181815	-460.0	-0.8218181818181818	-904.0	-0.13571428571428573	133.0	95.27588180130535	39911.0	0.9880761131360413	0.1447040894879705	-0.0059748484813144185	0.05225535686468822	1.5228160024564375E12	1.522816002473E12	27.23614479017266	25993.0	894.53125	29312.0	3835.8974358974356	2618.0	0.0	0.0	
0.31221339976895535	0.9399995716718866	-0.038594017020563046	0.3389857033960209	0.6157251908396942	-121.0	-0.20076335877862603	17.0	0.3598473282442751	87.0	0.3734939759036145	1236.0	9.771084337349398	2016.0	-0.2530120481927711	2068.0	0.41909090909090907	-461.0	-0.8181818181818182	-900.0	-0.13877551020408163	136.0	95.27290364927055	39910.0	0.987840073320456	0.14614496397366578	-0.006000344465090909	0.05270327232414089	1.52281600246425E12	1.522816002473E12	27.23614479017266	25993.0	902.34375	29568.0	3847.6190476190473	2626.0	0.0	0.0	
0.3152551633602931	0.9401578509663828	-0.03836535777797245	0.3385724657866328	0.5180258483863653	-127.0	-0.10717254931600038	23.0	0.325750132265135	89.0	0.39759036144578314	1236.0	9.771084337349398	2014.0	-0.2530120481927711	2068.0	0.42818181818181816	-471.0	-0.8136363636363636	-895.0	-0.13673469387755102	134.0	95.27588180130535	39911.0	0.9876024742148664	0.14758188446285872	-0.006022426758596973	0.053147630982038896	1.5228160024720625E12	1.522816002481E12	27.23614479017266	25993.0	910.15625	29824.0	3852.014652014652	2629.0	0.0	0.0	
0.31831305181093783	0.9403058135001022	-0.03812505842990128	0.33818849332529016	0.7266876216135307	-134.0	7.483909594373972E-4	9.0	0.5515641371052239	74.0	0.39759036144578314	1236.0	9.771084337349398	2014.0	-0.24096385542168675	2067.0	0.4218181818181818	-464.0	-0.8090909090909091	-890.0	-0.13877551020408163	136.0	95.27588180130535	39911.0	0.9873613129590711	0.14902478942664657	-0.006042267018690528	0.05359795534680139	1.522816002479875E12	1.522816002482E12	27.23614479017266	25993.0	917.96875	30080.0	3834.432234432234	2617.0	0.0	0.0	
0.3213513848877996	0.9404453189037826	-0.03789538559394471	0.33782620073441416	0.4906247683984289	-134.0	7.411250277921E-4	24.0	0.43933891647520945	81.0	0.39759036144578314	1235.0	9.783132530120483	2014.0	-0.16867469879518074	2061.0	0.41909090909090907	-461.0	-0.8272727272727273	-910.0	-0.13877551020408163	136.0	95.27588180130535	39911.0	0.9871194079110602	0.15045736272571808	-0.006062702063938317	0.05404720317114927	1.5228160024876875E12	1.522816002502E12	27.23614479017266	25993.0	925.78125	30336.0	3857.8754578754574	2633.0	0.0	0.0	
0.3243951436767326	0.9405952685745597	-0.03766593538129541	0.33743416846400615	0.6538461538461536	-130.0	-0.06033470346447429	13.0	0.3129770992366412	89.0	0.39759036144578314	1236.0	9.771084337349398	2014.0	-0.08433734939759037	2054.0	0.4163636363636364	-458.0	-0.8172727272727273	-899.0	-0.13571428571428573	133.0	95.26992549801776	39909.0	0.9868747866349815	0.15189421199066405	-0.006082571074701961	0.05449134056908383	1.5228160024955E12	1.522816002505E12	27.23614479017266	25993.0	933.59375	30592.0	3859.340659340659	2634.0	0.0	0.0	
0.3274326115457987	0.9407606311370825	-0.03747583819862264	0.33699405996822385	0.6323518720465282	-120.0	-0.21243184296619405	14.0	0.18785896037804412	97.0	0.42168674698795183	1235.0	9.783132530120483	2012.0	-0.07228915662650603	2053.0	0.42363636363636364	-466.0	-0.8109090909090909	-892.0	-0.13877551020408163	136.0	95.26992549801776	39909.0	0.9866283923125947	0.1533307524474657	-0.006108034583301968	0.05492529244426348	1.5228160025033125E12	1.522816002515E12	27.23614479017266	25993.0	941.40625	30848.0	3852.014652014652	2629.0	0.0	0.0	
0.3304880951047104	0.9409256203857259	-0.037215969722401494	0.33656195343407114	0.9317297997983585	-139.0	0.07964856690191542	-6.0	0.26242258389745055	92.0	0.4096385542168675	1236.0	9.771084337349398	2013.0	-0.08433734939759037	2054.0	0.42454545454545456	-467.0	-0.8190909090909091	-901.0	-0.13979591836734695	137.0	95.26694734754697	39908.0	0.986378240592251	0.15477573366582262	-0.006121768706338773	0.05536210529096465	1.522816002511125E12	1.522816002522E12	27.23614479017266	25993.0	949.21875	31104.0	3834.432234432234	2617.0	0.0	0.0	
0.3335356562208333	0.9410882137621356	-0.03693849579185995	0.3361376525273931	0.8619533423699794	-134.0	0.0025683099093958594	-2.0	0.1989013340943139	96.0	0.3614457831325301	1234.0	9.795180722891567	2017.0	-0.0963855421686747	2055.0	0.41818181818181815	-460.0	-0.8254545454545454	-908.0	-0.13673469387755102	134.0	95.26694734754697	39908.0	0.9861264442247416	0.15621677703999481	-0.006131638540282761	0.05579746930386193	1.5228160025189375E12	1.522816002529E12	27.23614479017266	25993.0	957.03125	31360.0	3840.29304029304	2621.0	0.0	0.0	
0.3365939547703738	0.9412540160654493	-0.03664672793944238	0.3357050708166234	1.0524455753463382	-132.0	-0.027989821882951797	-15.0	0.24286118179247967	93.0	0.3373493975903615	1235.0	9.783132530120483	2019.0	-0.060240963855421686	2052.0	0.4163636363636364	-458.0	-0.82	-902.0	-0.13673469387755102	134.0	95.26694734754697	39908.0	0.9858714588982583	0.1576634657541453	-0.006138460008525474	0.056231818438806314	1.52281600252675E12	1.522816002536E12	27.23614479017266	25993.0	964.84375	31616.0	3859.340659340659	2634.0	0.0	0.0	
0.33966011680033675	0.9414292265712377	-0.03640699959052975	0.3352395289017823	1.1954618670775268	-116.0	-0.27200784368653264	-25.0	0.27116744870088905	91.0	0.3614457831325301	1234.0	9.795180722891567	2017.0	-0.03614457831325302	2050.0	0.42727272727272725	-470.0	-0.8127272727272727	-894.0	-0.13877551020408163	136.0	95.26694734754697	39908.0	0.9856135037965694	0.15911552400774912	-0.00615332374850453	0.05666046029141596	1.5228160025345625E12	1.522816002543E12	27.23614479017266	25993.0	972.65625	31872.0	3853.4798534798533	2630.0	0.0	0.0	
0.3427256276597181	0.9416145420745919	-0.03613627323991667	0.3347480006063877	1.2914642609299103	-122.0	-0.1779319916724497	-32.0	0.07022900763358769	104.0	0.3373493975903615	1236.0	9.771084337349398	2019.0	-0.08433734939759037	2054.0	0.41909090909090907	-461.0	-0.82	-902.0	-0.13877551020408163	136.0	95.26694734754697	39908.0	0.985353287691657	0.16056915885716666	-0.006162151006697722	0.0570830233442041	1.522816002542375E12	1.522816002557E12	27.23614479017266	25993.0	980.46875	32128.0	3832.9670329670325	2616.0	0.0	0.0	
0.34578560160288235	0.9417818790700854	-0.03587933222559782	0.33430460028881426	1.1729592187607456	-116.0	-0.267932054191596	-25.0	0.23753524516883273	93.0	0.3253012048192771	1235.0	9.783132530120483	2020.0	-0.12048192771084337	2057.0	0.4172727272727273	-459.0	-0.8236363636363636	-906.0	-0.1346938775510204	132.0	95.26694734754697	39908.0	0.9850912329272884	0.1620173148884744	-0.006172419746409532	0.05751133558349947	1.5228160025501875E12	1.52281600256E12	27.23614479017266	25993.0	988.28125	32384.0	3857.8754578754574	2633.0	0.0	0.0	
0.3488460598664724	0.9419557386639965	-0.035612762923022685	0.33384295337022035	1.2235550708833154	-118.0	-0.2350054525627044	-29.0	0.22014721919302055	94.0	0.3253012048192771	1235.0	9.783132530120483	2020.0	-0.1927710843373494	2063.0	0.41909090909090907	-461.0	-0.8190909090909091	-901.0	-0.13571428571428573	133.0	95.26992549801776	39909.0	0.9848268301781323	0.16346695264564165	-0.006180237129374072	0.05793508973898545	1.522816002558E12	1.522816002566E12	27.23614479017266	25993.0	996.09375	32640.0	3859.340659340659	2634.0	0.0	0.0	
0.3518968710312891	0.9421307555951205	-0.03535421089518697	0.33337624260548865	1.0905897453218936	-121.0	-0.18712423157468083	-21.0	0.27926771600351274	90.0	0.3493975903614458	1236.0	9.771084337349398	2018.0	-0.26506024096385544	2069.0	0.42454545454545456	-467.0	-0.81	-891.0	-0.13877551020408163	136.0	95.27588180130535	39911.0	0.9845609656929708	0.16491245998198997	-0.006188472093520043	0.058354847181372044	1.5228160025658125E12	1.522816002575E12	27.23614479017266	25993.0	1003.90625	32896.0	3852.014652014652	2629.0	0.0	0.0	
0.3549574269127796	0.9423025973094008	-0.0350810222979643	0.3329191147688455	1.2489620999062536	-123.0	-0.1549484398017944	-32.0	0.35315387705905993	85.0	0.3253012048192771	1235.0	9.783132530120483	2020.0	-0.3493975903614458	2076.0	0.4218181818181818	-464.0	-0.8218181818181818	-904.0	-0.13979591836734695	137.0	95.27588180130535	39911.0	0.984291950074914	0.16636206784380161	-0.006193500291974235	0.05877635540410975	1.522816002573625E12	1.522816002608E12	27.23614479017266	25993.0	1011.71875	33152.0	3828.5714285714284	2613.0	0.0	0.0	
0.3580099688516177	0.9424676948076399	-0.034794394455873644	0.33248156995302225	1.1617656820444733	-122.0	-0.16886823763690667	-27.0	0.3348157982077664	86.0	0.30120481927710846	1235.0	9.783132530120483	2022.0	-0.3734939759036145	2078.0	0.4172727272727273	-459.0	-0.8245454545454546	-907.0	-0.1346938775510204	132.0	95.27885995412214	39912.0	0.9840213429423947	0.16780688686167464	-0.006195160901582912	0.05919852478772357	1.5228160025814375E12	1.52281600261E12	27.23614479017266	25993.0	1019.53125	33408.0	3846.1538461538457	2625.0	0.0	0.0	
0.3610639646902486	0.942631468832135	-0.03454154384838291	0.3320433642100741	1.1975519873650964	-118.0	-0.22848117925769926	-30.0	0.37773098183732534	83.0	0.3373493975903615	1236.0	9.771084337349398	2019.0	-0.39759036144578314	2080.0	0.4209090909090909	-463.0	-0.8218181818181818	-904.0	-0.1346938775510204	132.0	95.27885995412214	39912.0	0.9837483130038511	0.16925224736393638	-0.006202035596161348	0.05961936077146293	1.52281600258925E12	1.522816002611E12	27.23614479017266	25993.0	1027.34375	33664.0	3857.8754578754574	2633.0	0.0	0.0	
0.3641065103489634	0.9427887099865377	-0.034324035404430714	0.3316192227773867	1.0499119201409282	-128.0	-0.07385659294056246	-21.0	0.3745025119070919	83.0	0.42168674698795183	1234.0	9.795180722891567	2012.0	-0.4096385542168675	2081.0	0.41818181818181815	-460.0	-0.8145454545454546	-896.0	-0.13571428571428573	133.0	95.27885995412214	39912.0	0.9834740257770481	0.17069121409765445	-0.0062143417860793145	0.06003942044957342	1.5228160025970625E12	1.522816002613E12	27.23614479017266	25993.0	1035.15625	33920.0	3853.4798534798533	2630.0	0.0	0.0	
0.3671263230340793	0.9429548947595805	-0.03413069781467061	0.33116636591844933	0.8425410790529171	-135.0	0.033639539397076104	-8.0	0.03545089921076435	105.0	0.4819277108433735	1236.0	9.771084337349398	2007.0	-0.43373493975903615	2083.0	0.41818181818181815	-460.0	-0.8272727272727273	-910.0	-0.13775510204081634	135.0	95.27290364927055	39910.0	0.9831995373593277	0.1721213509228569	-0.006230013597096521	0.06044912922015194	1.522816002604875E12	1.522816002614E12	27.23614479017266	25993.0	1042.96875	34176.0	3832.9670329670325	2616.0	0.0	0.0	
0.3701445483278347	0.943105811844338	-0.0339400716656092	0.3307559511191985	0.774392199627942	-133.0	0.002822503047020433	-4.0	0.26416062608249424	90.0	0.46987951807228917	1236.0	9.771084337349398	2008.0	-0.39759036144578314	2080.0	0.4172727272727273	-459.0	-0.8245454545454546	-907.0	-0.13673469387755102	134.0	95.27290364927055	39910.0	0.9829229534811161	0.1735480434673746	-0.006245569647365457	0.0608649076922472	1.5228160026126875E12	1.522816002626E12	27.23614479017266	25993.0	1050.78125	34432.0	3846.1538461538457	2625.0	0.0	0.0	
0.3731517970538038	0.9432595232213447	-0.03372493449089979	0.33033937192806173	0.6610687022900769	-135.0	0.03333333333333339	3.0	0.21615776081424953	93.0	0.44578313253012053	1234.0	9.795180722891567	2010.0	-0.4096385542168675	2081.0	0.4172727272727273	-459.0	-0.8218181818181818	-904.0	-0.13673469387755102	134.0	95.27290364927055	39910.0	0.9826451491397062	0.17497021980666125	-0.006255817254498364	0.061276404949143756	1.5228160026205E12	1.522816002627E12	27.23614479017266	25993.0	1058.59375	34688.0	3860.8058608058604	2635.0	0.0	0.0	
0.3761503442742115	0.9434250035927758	-0.03348899399765771	0.3298905119535757	0.5945366222951229	-138.0	0.07885937795722671	7.0	0.15330263074884898	97.0	0.44578313253012053	1236.0	9.771084337349398	2010.0	-0.42168674698795183	2082.0	0.42818181818181816	-471.0	-0.8127272727272727	-894.0	-0.13979591836734695	137.0	95.26992549801776	39909.0	0.9823659366122307	0.17639062303768357	-0.006261382191118898	0.061679087066923696	1.5228160026283125E12	1.52281600263E12	27.23614479017266	25993.0	1066.40625	34944.0	3847.6190476190473	2626.0	0.0	0.0	
0.3791563401817727	0.9435790135447235	-0.0332640408329093	0.32947253115460573	0.7118007758728576	-141.0	0.12401451633087217	-1.0	0.21311475409836045	93.0	0.46987951807228917	1235.0	9.783132530120483	2008.0	-0.45783132530120485	2085.0	0.42272727272727273	-465.0	-0.82	-902.0	-0.1346938775510204	132.0	95.26694734754697	39908.0	0.9820838140762636	0.1778124069799395	-0.006268430180699698	0.06208733233509627	1.522816002636125E12	1.522816002644E12	27.23614479017266	25993.0	1074.21875	35200.0	3831.501831501831	2615.0	0.0	0.0	
0.38213165296827206	0.9437290620082801	-0.033033894048655164	0.3290656763701594	0.27853286166449437	-138.0	0.07720474151306406	27.0	0.21138211382113817	93.0	0.44578313253012053	1235.0	9.783132530120483	2010.0	-0.42168674698795183	2082.0	0.4218181818181818	-464.0	-0.8081818181818182	-889.0	-0.1346938775510204	132.0	95.26694734754697	39908.0	0.9818023865718253	0.17921927674909519	-0.006273315973768618	0.062491359963538294	1.5228160026439375E12	1.522816002647E12	27.23614479017266	25993.0	1082.03125	35456.0	3859.340659340659	2634.0	0.0	0.0	
0.3850869062084133	0.9438893594027568	-0.032818148228084154	0.3286272148698743	0.10834769761142636	-131.0	-0.030288106377739262	38.0	-0.11093326766806226	114.0	0.43373493975903615	1235.0	9.783132530120483	2011.0	-0.39759036144578314	2080.0	0.4172727272727273	-459.0	-0.8209090909090909	-903.0	-0.13571428571428573	133.0	95.27290364927055	39910.0	0.981520705526049	0.18061885745232545	-0.006279948362176977	0.06288477721064051	1.52281600265175E12	1.522816002661E12	27.23614479017266	25993.0	1089.84375	35712.0	3859.340659340659	2634.0	0.0	0.0	
0.3880490848241015	0.9440556774807001	-0.03257054555150278	0.32817379142602576	0.22961832061068743	-127.0	-0.09111450381679373	30.0	-0.003175572519083945	107.0	0.3855421686746988	1235.0	9.783132530120483	2015.0	-0.3734939759036145	2078.0	0.4263636363636364	-469.0	-0.8136363636363636	-895.0	-0.13775510204081634	135.0	95.26992549801776	39909.0	0.9812362138144436	0.18202287721840912	-0.0062799097079515144	0.06327501562455302	1.5228160026595625E12	1.522816002662E12	27.23614479017266	25993.0	1097.65625	35968.0	3819.7802197802193	2607.0	0.0	0.0	
0.3910199434364636	0.9442135861149217	-0.032298673792491295	0.32774608993432225	0.34993335756694505	-141.0	0.1233490851811464	22.0	0.16478856173512646	96.0	0.39759036144578314	1235.0	9.783132530120483	2014.0	-0.3493975903614458	2076.0	0.42454545454545456	-467.0	-0.81	-891.0	-0.13877551020408163	136.0	95.26992549801776	39909.0	0.9809487265299931	0.18342936729110035	-0.006274560528699319	0.06367018944955927	1.522816002667375E12	1.522816002679E12	27.23614479017266	25993.0	1105.46875	36224.0	3830.03663003663	2614.0	0.0	0.0	
0.3939773655146041	0.9443694577979826	-0.03204419412638055	0.32732170230698243	0.2250405722185484	-137.0	0.06130913025184823	30.0	-0.004447917292781224	107.0	0.39759036144578314	1234.0	9.795180722891567	2014.0	-0.3253012048192771	2074.0	0.41818181818181815	-460.0	-0.8236363636363636	-906.0	-0.13673469387755102	134.0	95.27290364927055	39910.0	0.9806603896845327	0.18482929231245504	-0.006271598127402397	0.06406246845061499	1.5228160026751875E12	1.52281600268E12	27.23614479017266	25993.0	1113.28125	36480.0	3844.688644688644	2624.0	0.0	0.0	
0.39693770946511187	0.944522484416843	-0.031824365890772505	0.32690134011148675	0.28435114503816794	-129.0	-0.06130725190839694	26.0	0.041388358778625955	104.0	0.42168674698795183	1235.0	9.783132530120483	2012.0	-0.28915662650602414	2071.0	0.41818181818181815	-460.0	-0.82	-902.0	-0.13571428571428573	133.0	95.26992549801776	39909.0	0.9803696204913417	0.18623005709840137	-0.006274761665010179	0.06445463844314228	1.522816002683E12	1.522816002683E12	27.23614479017266	25993.0	1121.09375	36736.0	3857.8754578754574	2633.0	0.0	0.0	
0.39989045108965793	0.9446808667247052	-0.03160898552773344	0.32646428913153985	0.23634534587845515	-131.0	-0.030297650748565056	29.0	-0.05053553464702054	110.0	0.43373493975903615	1234.0	9.795180722891567	2011.0	-0.28915662650602414	2071.0	0.4163636363636364	-458.0	-0.8181818181818182	-900.0	-0.13877551020408163	136.0	95.26992549801776	39909.0	0.9800774583753717	0.18762840238836093	-0.006278039139553948	0.06484091629692457	1.5228160026908125E12	1.522816002697E12	27.23614479017266	25993.0	1128.90625	36992.0	3850.5494505494503	2628.0	0.0	0.0	
0.4028551929820756	0.9448548400219156	-0.031420710047115954	0.3259786346791742	0.4940692894891371	-112.0	-0.3201409277745154	12.0	-0.17228420434527317	118.0	0.43373493975903615	1236.0	9.771084337349398	2011.0	-0.30120481927710846	2072.0	0.4218181818181818	-464.0	-0.8063636363636364	-887.0	-0.13571428571428573	133.0	95.27290364927055	39910.0	0.9797819595948319	0.1890354708634243	-0.006286287022122809	0.06521798067580897	1.522816002698625E12	1.522816002703E12	27.23614479017266	25993.0	1136.71875	37248.0	3831.501831501831	2615.0	0.0	0.0	
0.40580237875703595	0.9449989506638575	-0.031214703540217794	0.3255804440182368	0.15441990559990762	-131.0	-0.027620768020511614	34.0	0.11910727813064506	99.0	0.44578313253012053	1236.0	9.771084337349398	2010.0	-0.3493975903614458	2076.0	0.42	-462.0	-0.8254545454545454	-908.0	-0.13571428571428573	133.0	95.26396919785819	39907.0	0.9794860767392497	0.19042848628876008	-0.006290132640824969	0.06560831742306238	1.5228160027064375E12	1.522816002716E12	27.23614479017266	25993.0	1144.53125	37504.0	3859.340659340659	2634.0	0.0	0.0	
0.40876167696319615	0.9451549181653892	-0.030993409441779005	0.32514856487296545	0.41279204256303526	-134.0	0.018390006939625458	17.0	0.026601896830904567	105.0	0.45783132530120485	1236.0	9.771084337349398	2009.0	-0.3734939759036145	2078.0	0.4263636363636364	-469.0	-0.8218181818181818	-904.0	-0.13571428571428573	133.0	95.26396919785819	39907.0	0.9791868377963892	0.19182951554978908	-0.006290451019387652	0.06599245317620586	1.52281600271425E12	1.522816002719E12	27.23614479017266	25993.0	1152.34375	37760.0	3853.4798534798533	2630.0	0.0	0.0	
0.41170403419241164	0.945323010006234	-0.030771630485263834	0.3246806330997053	0.2722837628422208	-135.0	0.03351891178327494	26.0	-0.21787292659128732	121.0	0.45783132530120485	1235.0	9.783132530120483	2009.0	-0.39759036144578314	2080.0	0.42	-462.0	-0.8163636363636364	-898.0	-0.13877551020408163	136.0	95.26992549801776	39909.0	0.9788871864736427	0.19322521682222765	-0.006289760123843135	0.06636513135151019	1.5228160027220625E12	1.52281600276E12	27.23614479017266	25993.0	1160.15625	38016.0	3852.014652014652	2629.0	0.0	0.0	
0.4146429610256571	0.9454895518194215	-0.03054125184416204	0.32421711758648947	0.254984618890281	-129.0	-0.058334282784550696	27.0	-0.2315141848011849	122.0	0.42168674698795183	1236.0	9.771084337349398	2012.0	-0.43373493975903615	2083.0	0.4209090909090909	-463.0	-0.8245454545454546	-907.0	-0.13571428571428573	133.0	95.26694734754697	39908.0	0.9785857695375303	0.19461907799503222	-0.006286595407941766	0.06673668299503402	1.522816002729875E12	1.522816002761E12	27.23614479017266	25993.0	1167.96875	38272.0	3832.9670329670325	2616.0	0.0	0.0	
0.41756367351519047	0.9456562942326208	-0.03025084178236747	0.32375771766814776	0.03935538592027139	-145.0	0.1863726321741588	41.0	-0.27560079163132595	125.0	0.39759036144578314	1235.0	9.783132530120483	2014.0	-0.43373493975903615	2083.0	0.4209090909090909	-463.0	-0.8109090909090909	-892.0	-0.13367346938775512	131.0	95.26694734754697	39908.0	0.9782841271883003	0.19600461425143975	-0.0062700418857210395	0.06710472605056429	1.5228160027376875E12	1.522816002763E12	27.23614479017266	25993.0	1175.78125	38528.0	3857.8754578754574	2633.0	0.0	0.0	
0.4204804022508817	0.9458144519062457	-0.030009665404862607	0.3233178661125408	-0.037269869779972466	-133.0	0.001796138302649406	46.0	-0.15143691064211948	117.0	0.4096385542168675	1234.0	9.795180722891567	2013.0	-0.42168674698795183	2082.0	0.4209090909090909	-463.0	-0.8218181818181818	-904.0	-0.13673469387755102	134.0	95.26694734754697	39908.0	0.9779808142075578	0.19738657486125893	-0.006262861658605123	0.06747476321046063	1.5228160027455E12	1.522816002765E12	27.23614479017266	25993.0	1183.59375	38784.0	3859.340659340659	2634.0	0.0	0.0	
0.4233928517682574	0.9459788686712998	-0.029720968983023136	0.32286319708210987	-0.006463475789824962	-153.0	0.3071265392544716	44.0	-0.30300328745751404	127.0	0.42168674698795183	1235.0	9.783132530120483	2012.0	-0.42168674698795183	2082.0	0.4209090909090909	-463.0	-0.8172727272727273	-899.0	-0.13673469387755102	134.0	95.26992549801776	39909.0	0.9776758708057978	0.1987679031350826	-0.006244933031322339	0.06783961334531542	1.5228160027533125E12	1.522816002766E12	27.23614479017266	25993.0	1191.40625	39040.0	3865.201465201465	2638.0	0.0	0.0	
0.42629840471604435	0.9461287204552383	-0.02949823693142899	0.32244425618650213	-0.18962274587896855	-131.0	-0.0309768779732271	56.0	0.0045358999889370056	107.0	0.4096385542168675	1235.0	9.783132530120483	2013.0	-0.43373493975903615	2083.0	0.42	-462.0	-0.8236363636363636	-906.0	-0.14081632653061227	138.0	95.26992549801776	39909.0	0.977369583606302	0.2001430082722432	-0.006240023952917194	0.06820949627469382	1.522816002761125E12	1.522816002768E12	27.23614479017266	25993.0	1199.21875	39296.0	3834.432234432234	2617.0	0.0	0.0	
0.4291818832801422	0.946282144130689	-0.029281389944587614	0.322013515092669	-0.4172661870503597	-128.0	-0.07655554945356705	71.0	-0.255038717117909	124.0	0.42168674698795183	1235.0	9.783132530120483	2012.0	-0.43373493975903615	2083.0	0.42	-462.0	-0.8263636363636364	-909.0	-0.13571428571428573	133.0	95.26992549801776	39909.0	0.97706358401543	0.20150867247887747	-0.006235406694153263	0.06857205998131895	1.5228160027689375E12	1.522816002781E12	27.23614479017266	25993.0	1207.03125	39552.0	3847.6190476190473	2626.0	0.0	0.0	
0.43206896760283653	0.9464474898713139	-0.029027817545785064	0.321550205605311	-0.276881134133042	-136.0	0.04612868047982553	62.0	-0.3448200654307523	130.0	0.4096385542168675	1236.0	9.771084337349398	2013.0	-0.39759036144578314	2080.0	0.4209090909090909	-463.0	-0.81	-891.0	-0.13775510204081634	135.0	95.27588180130535	39911.0	0.976755167028688	0.20287857231037035	-0.0062223443392253296	0.06892685261195153	1.52281600277675E12	1.52281600279E12	27.23614479017266	25993.0	1214.84375	39808.0	3822.7106227106224	2609.0	0.0	0.0	
0.43494638037744937	0.9466049819095469	-0.028799411092544996	0.32110683914352706	-0.41232201829895465	-134.0	0.015267175572519083	71.0	-0.29657300633425404	127.0	0.42168674698795183	1236.0	9.771084337349398	2012.0	-0.3855421686746988	2079.0	0.4163636363636364	-458.0	-0.8181818181818182	-900.0	-0.13979591836734695	137.0	95.27588180130535	39911.0	0.9764457580588722	0.20424235133143312	-0.006213847962891885	0.06928298192872293	1.5228160027845625E12	1.522816002797E12	27.23614479017266	25993.0	1222.65625	40064.0	3853.4798534798533	2630.0	0.0	0.0	
0.4378169997942105	0.9467550694572593	-0.02853168489546147	0.320687981399371	-0.5010213955488649	-147.0	0.21363294269433403	77.0	-0.21814858617352964	122.0	0.4096385542168675	1235.0	9.783132530120483	2013.0	-0.3855421686746988	2079.0	0.42363636363636364	-466.0	-0.8272727272727273	-910.0	-0.13877551020408163	136.0	95.26694734754697	39908.0	0.976135065610734	0.205601402999636	-0.006196063410374192	0.0696419813612716	1.522816002792375E12	1.522816002804E12	27.23614479017266	25993.0	1230.46875	40320.0	3832.9670329670325	2616.0	0.0	0.0	
0.4406769593669173	0.9469179808896759	-0.028269111554809656	0.32022990928351297	-0.5585864517162236	-141.0	0.12053595259702149	81.0	-0.430363529600171	136.0	0.43373493975903615	1234.0	9.795180722891567	2011.0	-0.3855421686746988	2079.0	0.43272727272727274	-476.0	-0.8118181818181818	-893.0	-0.13571428571428573	133.0	95.26992549801776	39909.0	0.9758235271347232	0.2069583295442433	-0.006178495100057573	0.06998942720799589	1.5228160028001875E12	1.522816002805E12	27.23614479017266	25993.0	1238.28125	40576.0	3859.340659340659	2634.0	0.0	0.0	
0.44353006558046365	0.9470706801473641	-0.028014578778165725	0.31980042242168966	-0.6615776081424941	-144.0	0.16550042408821025	88.0	-0.3357718405428327	130.0	0.43373493975903615	1234.0	9.795180722891567	2011.0	-0.3614457831325301	2077.0	0.42818181818181816	-471.0	-0.8227272727272728	-905.0	-0.13775510204081634	135.0	95.26992549801776	39909.0	0.975510746963912	0.20830987549599791	-0.006161856279242529	0.07034066999926977	1.522816002808E12	1.522816002815E12	27.23614479017266	25993.0	1246.09375	40832.0	3856.4102564102564	2632.0	0.0	0.0	
0.44638691930582725	0.9472392260110007	-0.02775082655440622	0.3193238799896321	-0.47380889707817836	-144.0	0.16435904185311928	76.0	-0.6082653329823638	148.0	0.42168674698795183	1235.0	9.783132530120483	2012.0	-0.3734939759036145	2078.0	0.41818181818181815	-460.0	-0.8154545454545454	-897.0	-0.13877551020408163	136.0	95.27290364927055	39910.0	0.9751955668318391	0.20966666093206268	-0.006142506541108548	0.07068074234556596	1.5228160028158125E12	1.522816002828E12	27.23614479017266	25993.0	1253.90625	41088.0	3852.014652014652	2629.0	0.0	0.0	
0.4492363211771531	0.947395944481215	-0.027498660709777703	0.3188804604232114	-0.623235386385025	-140.0	0.10216459270103516	86.0	-0.4056258496287775	135.0	0.42168674698795183	1236.0	9.771084337349398	2012.0	-0.3734939759036145	2078.0	0.42272727272727273	-465.0	-0.8145454545454546	-896.0	-0.13673469387755102	134.0	95.27885995412214	39912.0	0.9748792268057336	0.21101741247145156	-0.006124890298728439	0.071025562266955	1.522816002823625E12	1.522816002836E12	27.23614479017266	25993.0	1261.71875	41344.0	3831.501831501831	2615.0	0.0	0.0	
0.45207563997244765	0.9475476562075048	-0.02724686286860075	0.31845101299803763	-0.741133094459157	-142.0	0.13200394661681458	94.0	-0.4181336656800124	136.0	0.42168674698795183	1234.0	9.795180722891567	2012.0	-0.3614457831325301	2077.0	0.42272727272727273	-465.0	-0.8254545454545454	-908.0	-0.13673469387755102	134.0	95.27885995412214	39912.0	0.974562037907979	0.21236239332874118	-0.006106509758712269	0.0713705731159717	1.5228160028314375E12	1.522816002843E12	27.23614479017266	25993.0	1269.53125	41600.0	3835.8974358974356	2618.0	0.0	0.0	
0.45490926850227775	0.9477054040500305	-0.026968822172419495	0.31800495242212207	-0.7361254384155144	-147.0	0.20744790592118836	94.0	-0.5527130183618734	145.0	0.39759036144578314	1235.0	9.783132530120483	2014.0	-0.3132530120481928	2073.0	0.42	-462.0	-0.8236363636363636	-906.0	-0.13775510204081634	135.0	95.26694734754697	39908.0	0.9742435264232183	0.21370610023737574	-0.006081427614354709	0.07170962405392832	1.52281600283925E12	1.52281600285E12	27.23614479017266	25993.0	1277.34375	41856.0	3859.340659340659	2634.0	0.0	0.0	
0.45774337358520684	0.9478587928549852	-0.02668155700552088	0.31757172941439105	-0.7311849992315183	-147.0	0.20605563809621402	94.0	-0.41159895486449094	136.0	0.3734939759036145	1235.0	9.783132530120483	2016.0	-0.30120481927710846	2072.0	0.4172727272727273	-459.0	-0.8154545454545454	-897.0	-0.13775510204081634	135.0	95.27588180130535	39911.0	0.9739230052188421	0.2150490446368328	-0.0060534790484750006	0.07205028589599202	1.5228160028470625E12	1.522816002857E12	27.23614479017266	25993.0	1285.15625	42112.0	3854.945054945055	2631.0	0.0	0.0	
0.46055470247945035	0.9480124869099454	-0.026368844309576842	0.3171387846236972	-1.0011195928753183	-153.0	0.2962849872773537	112.0	-0.5309923664122139	144.0	0.3493975903614458	1235.0	9.783132530120483	2018.0	-0.30120481927710846	2072.0	0.41909090909090907	-461.0	-0.8218181818181818	-904.0	-0.13775510204081634	135.0	95.27588180130535	39911.0	0.973603127708388	0.21638153920983644	-0.0060186244355162994	0.0723861545154216	1.522816002854875E12	1.522816002858E12	27.23614479017266	25993.0	1292.96875	42368.0	3832.9670329670325	2616.0	0.0	0.0	
0.46337120565488726	0.9481599832996251	-0.026075614490485673	0.3167218154756616	-0.9334209595065968	-150.0	0.24852130832617145	108.0	-0.3900712805217127	135.0	0.3614457831325301	1236.0	9.771084337349398	2017.0	-0.27710843373493976	2070.0	0.41909090909090907	-461.0	-0.8236363636363636	-906.0	-0.13877551020408163	136.0	95.27290364927055	39910.0	0.973280732411233	0.2177149913134266	-0.005987441235952647	0.07272516085849837	1.5228160028626875E12	1.52281600291E12	27.23614479017266	25993.0	1300.78125	42624.0	3859.340659340659	2634.0	0.0	0.0	
0.4661832878205347	0.9483089423704281	-0.025784624424443972	0.3162993881808316	-0.9578143832864607	-150.0	0.24688629971876272	110.0	-0.38750502209722787	135.0	0.3614457831325301	1235.0	9.783132530120483	2017.0	-0.24096385542168675	2067.0	0.4218181818181818	-464.0	-0.8263636363636364	-909.0	-0.14285714285714288	140.0	95.26992549801776	39909.0	0.9729569175302978	0.2190467142855682	-0.00595590424903494	0.07306093891549831	1.5228160028705E12	1.522816002912E12	27.23614479017266	25993.0	1308.59375	42880.0	3860.8058608058604	2635.0	0.0	0.0	
0.46899414572647513	0.948450178370471	-0.025470891216524058	0.31590108079849794	-0.982088509704136	-159.0	0.38267724392556013	112.0	-0.2323005538093098	125.0	0.3493975903614458	1236.0	9.771084337349398	2018.0	-0.21686746987951808	2065.0	0.41818181818181815	-460.0	-0.8145454545454546	-896.0	-0.14081632653061227	138.0	95.26992549801776	39909.0	0.9726313213919278	0.22037605259520535	-0.005918259693960347	0.07340083304801606	1.5228160028783125E12	1.522816002913E12	27.23614479017266	25993.0	1316.40625	43136.0	3854.945054945055	2631.0	0.0	0.0	
0.47180627738938574	0.9486038387944552	-0.025176485426340454	0.31546299562071434	-0.8688410825815402	-145.0	0.16645186874194492	105.0	-0.4139982155249328	137.0	0.3493975903614458	1235.0	9.783132530120483	2018.0	-0.22891566265060243	2066.0	0.42272727272727273	-465.0	-0.8136363636363636	-895.0	-0.14081632653061227	138.0	95.26694734754697	39908.0	0.9723036552309717	0.22170883299684738	-0.005884278530782501	0.07373039171087842	1.522816002886125E12	1.522816002915E12	27.23614479017266	25993.0	1324.21875	43392.0	3831.501831501831	2615.0	0.0	0.0	
0.47462315963719803	0.9487518633702048	-0.024888062444992236	0.31504045152853083	-0.8021669539522288	-158.0	0.36385126816055174	101.0	-0.3044570302881061	130.0	0.4096385542168675	1236.0	9.771084337349398	2013.0	-0.26506024096385544	2069.0	0.4254545454545455	-468.0	-0.81	-891.0	-0.14183673469387756	139.0	95.26992549801776	39909.0	0.9719735083997441	0.22304246070422265	-0.005850944703468132	0.07406298764008269	1.5228160028939375E12	1.522816002916E12	27.23614479017266	25993.0	1332.03125	43648.0	3859.340659340659	2634.0	0.0	0.0	
0.47741986865882535	0.9488909225910488	-0.024578517800113463	0.31464569516689594	-1.0718340183989044	-172.0	0.5752593462517127	119.0	-0.31777255823057377	131.0	0.39759036144578314	1235.0	9.783132530120483	2014.0	-0.26506024096385544	2069.0	0.42	-462.0	-0.8245454545454546	-907.0	-0.14285714285714288	140.0	95.26992549801776	39909.0	0.9716438184811942	0.2243646316178614	-0.005811574292308998	0.07439776670378327	1.52281600290175E12	1.522816002918E12	27.23614479017266	25993.0	1339.84375	43904.0	3847.6190476190473	2626.0	0.0	0.0	
0.4802137531303981	0.9490421411568116	-0.02425117515041855	0.3142147272365108	-0.9886711722662522	-166.0	0.47999222054747875	114.0	-0.5752905139300822	148.0	0.3734939759036145	1234.0	9.795180722891567	2016.0	-0.22891566265060243	2066.0	0.4218181818181818	-464.0	-0.8154545454545454	-897.0	-0.13775510204081634	135.0	95.26694734754697	39908.0	0.971312564464224	0.2256883314190312	-0.0057670855879773724	0.07472228515675239	1.5228160029095625E12	1.522816002919E12	27.23614479017266	25993.0	1347.65625	44160.0	3852.014652014652	2629.0	0.0	0.0	
0.483002367525056	0.9491863952997903	-0.023897570418112184	0.31380582070111945	-1.0740168132186678	-179.0	0.6754275775437238	120.0	-0.3884433278577641	136.0	0.3734939759036145	1235.0	9.783132530120483	2016.0	-0.1566265060240964	2060.0	0.4290909090909091	-472.0	-0.81	-891.0	-0.14081632653061227	138.0	95.27290364927055	39910.0	0.9709800451825045	0.227007906976735	-0.005715355244563294	0.0750499616379125	1.522816002917375E12	1.522816002929E12	27.23614479017266	25993.0	1355.46875	44416.0	3830.03663003663	2614.0	0.0	0.0	
0.4858013743890746	0.9493310162219737	-0.02356881475101878	0.31339293643952076	-0.8535215324787553	-171.0	0.5490422007777616	106.0	-0.47760334149503114	142.0	0.3734939759036145	1234.0	9.795180722891567	2016.0	-0.08433734939759037	2054.0	0.4209090909090909	-463.0	-0.8236363636363636	-906.0	-0.14081632653061227	138.0	95.27290364927055	39910.0	0.9706443884450597	0.22833230816109035	-0.005668751763887338	0.07537700898406752	1.5228160029251875E12	1.522816002929E12	27.23614479017266	25993.0	1363.28125	44672.0	3847.6190476190473	2626.0	0.0	0.0	
0.48859750561070897	0.9494697588249386	-0.02322811342930235	0.3129978144067897	-0.9092557251908393	-179.0	0.6677480916030536	110.0	-0.2914122137404581	130.0	0.3855421686746988	1236.0	9.771084337349398	2015.0	-0.04819277108433735	2051.0	0.42454545454545456	-467.0	-0.8063636363636364	-887.0	-0.14081632653061227	138.0	95.26992549801776	39909.0	0.9703071783696421	0.2296539085793107	-0.005618322214458662	0.0757066465647741	1.522816002933E12	1.522816002933E12	27.23614479017266	25993.0	1371.09375	44928.0	3825.6410256410254	2611.0	0.0	0.0	
0.49139363001400366	0.949610977638419	-0.02288260082445374	0.31259459004934187	-0.8272722962401027	-177.0	0.6330662367834621	105.0	-0.4270067801431893	139.0	0.3614457831325301	1235.0	9.783132530120483	2017.0	-0.012048192771084338	2048.0	0.41909090909090907	-461.0	-0.8163636363636364	-898.0	-0.13979591836734695	137.0	95.27588180130535	39911.0	0.9699680725735179	0.23097603569640707	-0.005565786989952157	0.07603309238199714	1.5228160029408125E12	1.522816002949E12	27.23614479017266	25993.0	1378.90625	45184.0	3852.014652014652	2629.0	0.0	0.0	
0.4941887005223871	0.9497447465206021	-0.022543246766344185	0.3122126174288033	-0.8679672038450659	-176.0	0.6138912449345019	108.0	-0.22589765337856932	126.0	0.3614457831325301	1235.0	9.783132530120483	2017.0	0.0	2047.0	0.4218181818181818	-464.0	-0.8118181818181818	-893.0	-0.13979591836734695	137.0	95.27588180130535	39911.0	0.9696271997844725	0.232295786929978	-0.005513798593495045	0.07636333438093808	1.522816002948625E12	1.522816002959E12	27.23614479017266	25993.0	1386.71875	45440.0	3831.501831501831	2615.0	0.0	0.0	
0.4969863470581136	0.9498979871793953	-0.022184921025781307	0.31177178068519346	-0.66416896923149	-168.0	0.4879876363976961	95.0	-0.5603896407998875	148.0	0.3132530120481928	1235.0	9.783132530120483	2021.0	0.04819277108433735	2043.0	0.42363636363636364	-466.0	-0.8172727272727273	-899.0	-0.14285714285714288	140.0	95.26694734754697	39908.0	0.9692841164341712	0.23362142184062581	-0.005456241473734379	0.07667830406687969	1.5228160029564375E12	1.522816002964E12	27.23614479017266	25993.0	1394.53125	45696.0	3857.8754578754574	2633.0	0.0	0.0	
0.4997952046038066	0.9500447132800951	-0.02181204285434461	0.31135073077650544	-0.5074474027183018	-173.0	0.5613479798920128	85.0	-0.37376652392478105	136.0	0.3132530120481928	1234.0	9.795180722891567	2021.0	0.08433734939759037	2040.0	0.42818181818181816	-471.0	-0.81	-891.0	-0.13979591836734695	137.0	95.27588180130535	39911.0	0.968937750226865	0.23495056418447213	-0.005394221664526282	0.0769985126306584	1.52281600296425E12	1.522816002967E12	27.23614479017266	25993.0	1402.34375	45952.0	3850.5494505494503	2628.0	0.0	0.0	
0.5025970275092667	0.950188622278205	-0.021439697243097907	0.3109371664423146	-0.5501734906315062	-178.0	0.6342817487855658	88.0	-0.46310432569974547	142.0	0.3132530120481928	1236.0	9.771084337349398	2021.0	0.13253012048192772	2036.0	0.41909090909090907	-461.0	-0.8163636363636364	-898.0	-0.13979591836734695	137.0	95.27588180130535	39911.0	0.9685903474969851	0.23627570478096266	-0.005331235775332452	0.07731822547780735	1.5228160029720625E12	1.522816002981E12	27.23614479017266	25993.0	1410.15625	46208.0	3854.945054945055	2631.0	0.0	0.0	
0.5054109881459411	0.9503268196172285	-0.02110411605717808	0.31053752140707147	-0.4094546123425	-169.0	0.4930561942426192	79.0	-0.2007725558723443	125.0	0.3373493975903615	1235.0	9.783132530120483	2019.0	0.1566265060240964	2034.0	0.42727272727272725	-470.0	-0.8227272727272728	-905.0	-0.14489795918367349	142.0	95.26992549801776	39909.0	0.9682395265107439	0.23760492843055284	-0.005276544744233978	0.07764196908453833	1.522816002979875E12	1.522816002985E12	27.23614479017266	25993.0	1417.96875	46464.0	3831.501831501831	2615.0	0.0	0.0	
0.5082301103675488	0.9504685542921356	-0.020737722199511918	0.31012815767001456	-0.23906385701878727	-179.0	0.6427755176669564	68.0	-0.33697490515152917	134.0	0.3132530120481928	1235.0	9.783132530120483	2021.0	0.1927710843373494	2031.0	0.4163636363636364	-458.0	-0.8181818181818182	-900.0	-0.14285714285714288	140.0	95.27290364927055	39910.0	0.9678861400244672	0.2389373216769247	-0.005213234859433876	0.07796280164729845	1.5228160029876875E12	1.522816002999E12	27.23614479017266	25993.0	1425.78125	46720.0	3859.340659340659	2634.0	0.0	0.0	
0.511066903266167	0.9506190246067394	-0.020325462939650027	0.30969395475536715	0.12877135587059207	-185.0	0.7305525263540531	44.0	-0.4723736822973466	143.0	0.26506024096385544	1235.0	9.783132530120483	2025.0	0.20481927710843376	2030.0	0.41818181818181815	-460.0	-0.8227272727272728	-905.0	-0.14081632653061227	138.0	95.27290364927055	39910.0	0.967528597285503	0.24027996120433542	-0.005137496010685922	0.0782787315503398	1.5228160029955E12	1.522816003E12	27.23614479017266	25993.0	1433.59375	46976.0	3857.8754578754574	2633.0	0.0	0.0	
0.513897056187676	0.950766905061422	-0.01994067485207241	0.3092647114146278	0.021139166177333822	-165.0	0.420886218889742	51.0	-0.3169068160260173	133.0	0.22891566265060243	1235.0	9.783132530120483	2028.0	0.20481927710843376	2030.0	0.41818181818181815	-460.0	-0.8172727272727273	-899.0	-0.14081632653061227	138.0	95.27290364927055	39910.0	0.9671699517414282	0.24161881924212839	-0.005067532627608321	0.0785935795697817	1.5228160030033125E12	1.522816003007E12	27.23614479017266	25993.0	1441.40625	47232.0	3854.945054945055	2631.0	0.0	0.0	
0.5167467193173186	0.9509297438734572	-0.019554732986540698	0.3087883330609939	0.4026942074539733	-156.0	0.2810058374494836	26.0	-0.42191288729232157	140.0	0.20481927710843376	1235.0	9.783132530120483	2030.0	0.1566265060240964	2034.0	0.42454545454545456	-467.0	-0.8227272727272728	-905.0	-0.14591836734693878	143.0	95.27290364927055	39910.0	0.9668068770330301	0.24297038859587589	-0.004996395478466224	0.07889796460892531	1.522816003011125E12	1.522816003018E12	27.23614479017266	25993.0	1449.21875	47488.0	3831.501831501831	2615.0	0.0	0.0	
0.519594384162688	0.9510863286593488	-0.019153514475978357	0.30833089096050864	0.3850720949957595	-158.0	0.30989687960358925	27.0	-0.3431096826034552	135.0	0.18072289156626506	1236.0	9.771084337349398	2032.0	0.14457831325301207	2035.0	0.4254545454545455	-468.0	-0.8236363636363636	-906.0	-0.14081632653061227	138.0	95.27290364927055	39910.0	0.9664420962314939	0.24431938836741784	-0.004920242044120058	0.0792054437376251	1.5228160030189375E12	1.522816003024E12	27.23614479017266	25993.0	1457.03125	47744.0	3856.4102564102564	2632.0	0.0	0.0	
0.5224543571842614	0.9512319917445713	-0.018753864963724484	0.3079058142201535	0.5202378838984558	-156.0	0.27756080241434383	18.0	-0.035771347417007035	115.0	0.1566265060240964	1236.0	9.771084337349398	2034.0	0.1566265060240964	2034.0	0.42272727272727273	-465.0	-0.8209090909090909	-903.0	-0.13877551020408163	136.0	95.27290364927055	39910.0	0.9660737667882024	0.24567115849293544	-0.004843491148156667	0.07952169264980713	1.52281600302675E12	1.522816003063E12	27.23614479017266	25993.0	1464.84375	48000.0	3857.8754578754574	2633.0	0.0	0.0	
0.525306185510265	0.9513822761735948	-0.018317036207658906	0.3074674792027951	0.48669637735516075	-160.0	0.33702510700260335	20.0	-0.09663327891276555	119.0	0.10843373493975904	1235.0	9.783132530120483	2038.0	0.22891566265060243	2028.0	0.42727272727272725	-470.0	-0.8181818181818182	-900.0	-0.14081632653061227	138.0	95.27588180130535	39911.0	0.965704519225182	0.2470202871499325	-0.0047559006059579075	0.07983195283751736	1.5228160030345625E12	1.522816003065E12	27.23614479017266	25993.0	1472.65625	48256.0	3854.945054945055	2631.0	0.0	0.0	
0.5281738164503644	0.9515288564285229	-0.017902882944326334	0.3070379816343658	0.7129069053259635	-145.0	0.1060805475125031	5.0	0.11766254277441417	105.0	0.08433734939759037	1234.0	9.795180722891567	2040.0	0.28915662650602414	2023.0	0.42454545454545456	-467.0	-0.8136363636363636	-895.0	-0.14081632653061227	138.0	95.27588180130535	39911.0	0.9653312457301582	0.24837561825825122	-0.004673152674099882	0.08014549217502344	1.522816003042375E12	1.522816003066E12	27.23614479017266	25993.0	1480.46875	48512.0	3832.9670329670325	2616.0	0.0	0.0	
0.5310600099638432	0.9516787787442605	-0.017480568096057265	0.3065973447811771	1.0447110141766636	-141.0	0.0444056706652123	-17.0	0.13225736095965135	104.0	0.03614457831325302	1234.0	9.795180722891567	2044.0	0.28915662650602414	2023.0	0.41909090909090907	-461.0	-0.8236363636363636	-906.0	-0.14285714285714288	140.0	95.26396919785819	39907.0	0.9649535521211117	0.2497402447668134	-0.004587263531012742	0.08045750061963124	1.5228160030501875E12	1.522816003067E12	27.23614479017266	25993.0	1488.28125	48768.0	3849.0842490842488	2627.0	0.0	0.0	
0.5339542015169164	0.9518315272277343	-0.017086750254083814	0.3061450419998268	1.191446911866759	-124.0	-0.21538861901457343	-27.0	0.1620402498265093	102.0	0.024096385542168676	1234.0	9.795180722891567	2045.0	0.24096385542168675	2027.0	0.41818181818181815	-460.0	-0.8236363636363636	-906.0	-0.14183673469387756	139.0	95.26992549801776	39909.0	0.9645727939683286	0.25110918584925046	-0.0045077724601213865	0.08076621760183392	1.522816003058E12	1.522816003068E12	27.23614479017266	25993.0	1496.09375	49024.0	3854.945054945055	2631.0	0.0	0.0	
0.536859410349133	0.9519802322074113	-0.016697676856113106	0.3057038192007625	1.3373873291068272	-116.0	-0.33630913874153634	-37.0	0.3748652262043386	88.0	0.0	1234.0	9.795180722891567	2047.0	0.20481927710843376	2030.0	0.4218181818181818	-464.0	-0.8218181818181818	-904.0	-0.13979591836734695	137.0	95.26992549801776	39909.0	0.9641885549432242	0.25248201144206667	-0.004428519517958389	0.08107806503330196	1.5228160030658125E12	1.522816003074E12	27.23614479017266	25993.0	1503.90625	49280.0	3865.201465201465	2638.0	0.0	0.0	
0.539771600515918	0.9521301543368444	-0.016324526994682387	0.3052567427934995	1.4520113217257054	-114.0	-0.3649541127026332	-45.0	0.46436229522257466	82.0	0.024096385542168676	1234.0	9.795180722891567	2045.0	0.1566265060240964	2034.0	0.4263636363636364	-469.0	-0.8190909090909091	-901.0	-0.14285714285714288	140.0	95.26992549801776	39909.0	0.9638013507425403	0.25385824860697637	-0.004352467793747947	0.08138797174741401	1.522816003073625E12	1.522816003088E12	27.23614479017266	25993.0	1511.71875	49536.0	3840.29304029304	2621.0	0.0	0.0	
0.54269386162212	0.9522820351778731	-0.015956444140865316	0.30480209541252157	1.6271056335024943	-112.0	-0.39344961405603646	-57.0	0.4770352680284873	81.0	0.04819277108433735	1234.0	9.795180722891567	2043.0	0.07228915662650603	2041.0	0.42818181818181816	-471.0	-0.8027272727272727	-883.0	-0.13673469387755102	134.0	95.27290364927055	39910.0	0.963410753436825	0.25523951305659326	-0.004276794985288646	0.08169590051878883	1.5228160030814375E12	1.522816003091E12	27.23614479017266	25993.0	1519.53125	49792.0	3843.223443223443	2623.0	0.0	0.0	
0.5456272240826552	0.9524286563971068	-0.015642576198585074	0.3043599255543861	1.7554707379134857	-98.0	-0.6050042408821037	-66.0	0.657591178965225	69.0	0.060240963855421686	1235.0	9.783132530120483	2042.0	-0.012048192771084338	2048.0	0.42363636363636364	-466.0	-0.8245454545454546	-907.0	-0.14183673469387756	139.0	95.27290364927055	39910.0	0.9630166037724306	0.25662433416600144	-0.00421476787226058	0.08200736371968466	1.52281600308925E12	1.5228160031E12	27.23614479017266	25993.0	1527.34375	50048.0	3825.6410256410254	2611.0	0.0	0.0	
0.5485693832102375	0.9525608402442017	-0.015347693254925915	0.3039610072772665	1.7915735312724055	-101.0	-0.5558601492977941	-69.0	1.03563746784193	44.0	0.08433734939759037	1234.0	9.795180722891567	2040.0	-0.0963855421686747	2055.0	0.4218181818181818	-464.0	-0.8218181818181818	-904.0	-0.13979591836734695	137.0	95.26694734754697	39908.0	0.9626191911951195	0.2580091400700284	-0.004157052202300119	0.08233040325521039	1.5228160030970625E12	1.522816003109E12	27.23614479017266	25993.0	1535.15625	50304.0	3850.5494505494503	2628.0	0.0	0.0	
0.5515087021114649	0.9526924064978787	-0.015116782921086421	0.3035599800293105	1.735928193943461	-87.0	-0.7665464306685676	-66.0	1.121550205519671	38.0	0.16867469879518074	1234.0	9.795180722891567	2033.0	-0.14457831325301207	2059.0	0.42727272727272725	-470.0	-0.8136363636363636	-895.0	-0.14183673469387756	139.0	95.26992549801776	39909.0	0.9622200820972333	0.25939229201923525	-0.004115889811982634	0.08265114579276481	1.522816003104875E12	1.52281600311E12	27.23614479017266	25993.0	1542.96875	50560.0	3834.432234432234	2617.0	0.0	0.0	
0.5544477287878847	0.9528313320575902	-0.01489070290471488	0.3031348208575859	1.8333124765361035	-95.0	-0.6402202477787512	-73.0	0.8711467067117176	54.0	0.22891566265060243	1233.0	9.807228915662652	2028.0	-0.18072289156626506	2062.0	0.4254545454545455	-468.0	-0.8090909090909091	-890.0	-0.14183673469387756	139.0	95.26992549801776	39909.0	0.961818934690636	0.2607771360517409	-0.004075385355877638	0.08296392841122577	1.5228160031126875E12	1.522816003125E12	27.23614479017266	25993.0	1550.78125	50816.0	3860.8058608058604	2635.0	0.0	0.0	
0.5573752423134197	0.9529550543219995	-0.01469841615095119	0.3027550511631697	1.6248755393295715	-98.0	-0.5909392631928311	-60.0	1.0038167938931297	45.0	0.28915662650602414	1236.0	9.771084337349398	2023.0	-0.18072289156626506	2062.0	0.4254545454545455	-468.0	-0.8245454545454546	-907.0	-0.13877551020408163	136.0	95.27290364927055	39910.0	0.961417293881918	0.26215235314075386	-0.004043448181462636	0.08328614107004481	1.5228160031205E12	1.522816003126E12	27.23614479017266	25993.0	1558.59375	51072.0	3862.271062271062	2636.0	0.0	0.0	
0.5602982051745424	0.9530758399732117	-0.01454541566200859	0.30238200036142354	1.570290901588611	-89.0	-0.7251495770579737	-57.0	1.0747266350319786	40.0	0.3253012048192771	1236.0	9.771084337349398	2020.0	-0.14457831325301207	2059.0	0.42272727272727273	-465.0	-0.8254545454545454	-908.0	-0.14183673469387756	139.0	95.27588180130535	39911.0	0.9610142222858246	0.2635244607731694	-0.004021792031954312	0.08360830298142503	1.5228160031283125E12	1.522816003133E12	27.23614479017266	25993.0	1566.40625	51328.0	3854.945054945055	2631.0	0.0	0.0	
0.5632319832565015	0.9531939240468353	-0.014398273956993933	0.30201661025058696	1.7145202331117135	-84.0	-0.7975868012804729	-67.0	1.267421817286383	27.0	0.3373493975903615	1235.0	9.783132530120483	2019.0	-0.16867469879518074	2061.0	0.42727272727272725	-470.0	-0.8090909090909091	-890.0	-0.13775510204081634	135.0	95.27588180130535	39911.0	0.9606075952269234	0.2649005455044044	-0.0040014004803309525	0.08393293619320276	1.522816003136125E12	1.522816003144E12	27.23614479017266	25993.0	1574.21875	51584.0	3831.501831501831	2615.0	0.0	0.0	
0.5661589350565053	0.9533217529284992	-0.014287245960308056	0.30161815263044056	1.7053516757153933	-73.0	-0.961260562517859	-67.0	1.062170878066702	40.0	0.39759036144578314	1235.0	9.783132530120483	2014.0	-0.18072289156626506	2062.0	0.4290909090909091	-472.0	-0.7990909090909091	-879.0	-0.13979591836734695	137.0	95.26992549801776	39909.0	0.9601998545112884	0.2662759905925568	-0.003990625997187191	0.08424613424130187	1.5228160031439375E12	1.522816003154E12	27.23614479017266	25993.0	1582.03125	51840.0	3859.340659340659	2634.0	0.0	0.0	
0.5690783378924174	0.9534392118764118	-0.014174359744763217	0.30125198220479127	1.619944778301121	-92.0	-0.6660711385414975	-62.0	1.0107195062530456	43.0	0.43373493975903615	1235.0	9.783132530120483	2011.0	-0.21686746987951808	2065.0	0.41818181818181815	-460.0	-0.8236363636363636	-906.0	-0.13877551020408163	136.0	95.27290364927055	39910.0	0.9597911168379805	0.2676448595673741	-0.003978957940987584	0.08456600427930146	1.52281600315175E12	1.522816003164E12	27.23614479017266	25993.0	1589.84375	52096.0	3859.340659340659	2634.0	0.0	0.0	
0.5720038677641822	0.9535729247574339	-0.014046223479531088	0.30083447404763713	1.840381275495779	-89.0	-0.7083484793408457	-77.0	0.7916313259824711	57.0	0.43373493975903615	1235.0	9.783132530120483	2011.0	-0.21686746987951808	2065.0	0.42454545454545456	-467.0	-0.8081818181818182	-889.0	-0.14183673469387756	139.0	95.27290364927055	39910.0	0.9593794698394249	0.26902087550321063	-0.003962704099362327	0.08487106910090812	1.5228160031595625E12	1.522816003171E12	27.23614479017266	25993.0	1597.65625	52352.0	3819.7802197802193	2607.0	0.0	0.0	
0.5749192054924211	0.9536994729999515	-0.013919973280886446	0.3004389281425971	1.6932904781036566	-92.0	-0.6588188027320208	-68.0	0.8790678987545198	51.0	0.44578313253012053	1236.0	9.771084337349398	2010.0	-0.20481927710843376	2064.0	0.4290909090909091	-472.0	-0.8163636363636364	-898.0	-0.14081632653061227	138.0	95.27588180130535	39911.0	0.958967214910318	0.2703899990862726	-0.003946548854494351	0.08517953905376822	1.522816003167375E12	1.522816003178E12	27.23614479017266	25993.0	1605.46875	52608.0	3837.362637362637	2619.0	0.0	0.0	
0.5778288778103485	0.9538220316202991	-0.013807062300921841	0.30005482336790207	1.6538907317852996	-90.0	-0.6859038407737499	-66.0	0.8591982734503018	52.0	0.44578313253012053	1235.0	9.783132530120483	2010.0	-0.1566265060240964	2060.0	0.4172727272727273	-459.0	-0.8236363636363636	-906.0	-0.14081632653061227	138.0	95.27588180130535	39911.0	0.9585537294444956	0.27175517532432264	-0.003933795311822411	0.08548916719058676	1.5228160031751875E12	1.52281600318E12	27.23614479017266	25993.0	1613.28125	52864.0	3856.4102564102564	2632.0	0.0	0.0	
0.5807470070330311	0.9539505118725707	-0.013669013420033092	0.2996524302757842	1.859017175572519	-98.0	-0.5601940203562342	-80.0	0.7783874045801527	57.0	0.44578313253012053	1237.0	9.759036144578314	2010.0	-0.1566265060240964	2060.0	0.41909090909090907	-461.0	-0.8136363636363636	-895.0	-0.14081632653061227	138.0	95.27588180130535	39911.0	0.9581370045137022	0.2731256784765353	-0.00391357677152765	0.08579352105547049	1.522816003183E12	1.522816003214E12	27.23614479017266	25993.0	1621.09375	53120.0	3862.271062271062	2636.0	0.0	0.0	
0.5836523760226155	0.9540898318612202	-0.013513616720702828	0.29921559936299613	1.803583435510027	-97.0	-0.5725586362377882	-77.0	0.46901079776925214	77.0	0.42168674698795183	1234.0	9.795180722891567	2012.0	-0.1927710843373494	2063.0	0.4209090909090909	-463.0	-0.8236363636363636	-906.0	-0.14285714285714288	140.0	95.26992549801776	39909.0	0.9577200754243338	0.27449324825081867	-0.003887890244093762	0.08608483085522625	1.5228160031908125E12	1.522816003217E12	27.23614479017266	25993.0	1628.90625	53376.0	3856.4102564102564	2632.0	0.0	0.0	
0.5865585678047099	0.9542203863835953	-0.013363366147196685	0.29880574735964793	1.7637522625324618	-85.0	-0.7528134099315337	-75.0	0.7719367277878333	57.0	0.3855421686746988	1235.0	9.783132530120483	2015.0	-0.20481927710843376	2064.0	0.42454545454545456	-467.0	-0.8163636363636364	-898.0	-0.13673469387755102	134.0	95.27290364927055	39910.0	0.957301006334365	0.275858468195055	-0.0038632560862238846	0.08638266057897352	1.522816003198625E12	1.522816003218E12	27.23614479017266	25993.0	1636.71875	53632.0	3831.501831501831	2615.0	0.0	0.0	
0.5894602414273176	0.9543593094303939	-0.013196028768653372	0.2983691896431034	1.7852417302798977	-87.0	-0.7184184771971032	-77.0	0.6763750244666273	63.0	0.3734939759036145	1235.0	9.783132530120483	2016.0	-0.20481927710843376	2064.0	0.4290909090909091	-472.0	-0.81	-891.0	-0.14183673469387756	139.0	95.27290364927055	39910.0	0.9568805721390636	0.27722383679517854	-0.003833203793955821	0.08667076510596157	1.5228160032064375E12	1.522816003219E12	27.23614479017266	25993.0	1644.53125	53888.0	3838.8278388278386	2620.0	0.0	0.0	
0.5923558736442289	0.9545034044277375	-0.012971903896837295	0.29791774140716976	1.8219348808225575	-108.0	-0.3941423897803394	-80.0	0.42864932232434955	79.0	0.3253012048192771	1236.0	9.771084337349398	2020.0	-0.22891566265060243	2066.0	0.42454545454545456	-467.0	-0.8245454545454546	-907.0	-0.14387755102040817	141.0	95.27588180130535	39911.0	0.9564590054268676	0.2785877593923971	-0.0037860667912861254	0.0869522682442673	1.52281600321425E12	1.52281600322E12	27.23614479017266	25993.0	1652.34375	54144.0	3850.5494505494503	2628.0	0.0	0.0	
0.5952662039152418	0.954641523492696	-0.012747130503544611	0.2974845748731686	2.0111597628550397	-98.0	-0.5448134227147673	-93.0	0.6860154221722787	62.0	0.26506024096385544	1235.0	9.783132530120483	2025.0	-0.26506024096385544	2069.0	0.41909090909090907	-461.0	-0.8263636363636364	-909.0	-0.13979591836734695	137.0	95.27290364927055	39910.0	0.9560332786763238	0.27995645188870905	-0.0037382005074305634	0.08723979004015164	1.5228160032220625E12	1.522816003232E12	27.23614479017266	25993.0	1660.15625	54400.0	3852.014652014652	2629.0	0.0	0.0	
0.5981642122638617	0.9547780089602651	-0.012546855615092077	0.29705475929540365	1.833063459017658	-93.0	-0.618397717634359	-82.0	0.74361940010795	58.0	0.30120481927710846	1234.0	9.795180722891567	2022.0	-0.3132530120481928	2073.0	0.42454545454545456	-467.0	-0.8254545454545454	-908.0	-0.14183673469387756	139.0	95.27290364927055	39910.0	0.9556073428237075	0.28131883332462215	-0.003696845497493105	0.08752516033492683	1.522816003229875E12	1.522816003234E12	27.23614479017266	25993.0	1667.96875	54656.0	3837.362637362637	2619.0	0.0	0.0	
0.6010418648167445	0.9549137487013164	-0.012376812636479622	0.296625263674827	1.5643101001189157	-81.0	-0.7984962982853199	-65.0	0.694081092485327	61.0	0.3373493975903615	1235.0	9.783132530120483	2019.0	-0.3132530120481928	2073.0	0.42454545454545456	-467.0	-0.8109090909090909	-892.0	-0.13775510204081634	135.0	95.27290364927055	39910.0	0.9551824134544872	0.2826714979041434	-0.003663757247176184	0.08780636755226065	1.5228160032376875E12	1.52281600325E12	27.23614479017266	25993.0	1675.78125	54912.0	3857.8754578754574	2633.0	0.0	0.0	
0.6039206163136862	0.9550419293278273	-0.012199383310531756	0.2962196621978737	1.5870229007633594	-97.0	-0.5502290076335876	-67.0	0.7974809160305345	54.0	0.3614457831325301	1236.0	9.771084337349398	2017.0	-0.30120481927710846	2072.0	0.42363636363636364	-466.0	-0.8245454545454546	-907.0	-0.14081632653061227	138.0	95.27588180130535	39911.0	0.9547553432382087	0.2840222034033833	-0.00362800377828263	0.08809347376827739	1.5228160032455E12	1.522816003251E12	27.23614479017266	25993.0	1683.59375	55168.0	3857.8754578754574	2633.0	0.0	0.0	
0.6067975139789115	0.9551714282455249	-0.012028899172486509	0.29580880353380884	1.594394440013673	-90.0	-0.6543617788918002	-68.0	0.7782461737115943	55.0	0.3614457831325301	1236.0	9.771084337349398	2017.0	-0.3493975903614458	2076.0	0.4254545454545455	-468.0	-0.8218181818181818	-904.0	-0.13775510204081634	135.0	95.27588180130535	39911.0	0.954326571888565	0.28537222170475607	-0.00359381947575656	0.0883774503382338	1.5228160032533125E12	1.522816003258E12	27.23614479017266	25993.0	1691.40625	55424.0	3854.945054945055	2631.0	0.0	0.0	
0.6096645632885723	0.9552989120493736	-0.01187766250464171	0.2954029616823557	1.479631169223792	-98.0	-0.5289849595646587	-61.0	0.7133247675912631	59.0	0.43373493975903615	1235.0	9.783132530120483	2011.0	-0.39759036144578314	2080.0	0.42454545454545456	-467.0	-0.8245454545454546	-907.0	-0.13979591836734695	137.0	95.27588180130535	39911.0	0.9538973038294756	0.286716913071412	-0.003564880776980217	0.0886602342129959	1.522816003261125E12	1.522816003269E12	27.23614479017266	25993.0	1699.21875	55680.0	3832.9670329670325	2616.0	0.0	0.0	
0.6125336019487871	0.9554260562121858	-0.011725260377040175	0.29499757521023107	1.5486782235926748	-99.0	-0.5111119467529049	-66.0	0.7098108524799761	59.0	0.44578313253012053	1234.0	9.795180722891567	2010.0	-0.39759036144578314	2080.0	0.4218181818181818	-464.0	-0.8145454545454546	-896.0	-0.13673469387755102	134.0	95.27588180130535	39911.0	0.9534657756231151	0.2880621676021916	-0.003535180873442882	0.08894214303652762	1.5228160032689375E12	1.522816003276E12	27.23614479017266	25993.0	1707.03125	55936.0	3857.8754578754574	2633.0	0.0	0.0	
0.6153973038390812	0.9555561349571134	-0.011566884254672592	0.2945822128616396	1.541086663673102	-106.0	-0.40173626702589427	-66.0	0.6452626852267627	63.0	0.45783132530120485	1236.0	9.771084337349398	2009.0	-0.3734939759036145	2078.0	0.4218181818181818	-464.0	-0.8163636363636364	-898.0	-0.14285714285714288	140.0	95.27588180130535	39911.0	0.9530330934985879	0.2894056359105239	-0.003503218043152628	0.0892189893636949	1.52281600327675E12	1.522816003285E12	27.23614479017266	25993.0	1714.84375	56192.0	3857.8754578754574	2633.0	0.0	0.0	
0.6182367198266828	0.9556851079756488	-0.011424546048396171	0.2941690910703583	1.228225656302364	-99.0	-0.5066468069260845	-46.0	0.5199776577918456	71.0	0.4819277108433735	1235.0	9.783132530120483	2007.0	-0.39759036144578314	2080.0	0.4209090909090909	-463.0	-0.8090909090909091	-890.0	-0.13673469387755102	134.0	95.26992549801776	39909.0	0.9526021516542456	0.2907374747238378	-0.0034755628608806755	0.08949179804712608	1.5228160032845625E12	1.522816003291E12	27.23614479017266	25993.0	1722.65625	56448.0	3821.245421245421	2608.0	0.0	0.0	
0.6210828373401459	0.9558051323793094	-0.01129853567589611	0.29378375041678717	1.2985992736974727	-110.0	-0.3362484251093157	-51.0	0.700659601274735	59.0	0.5421686746987953	1235.0	9.783132530120483	2002.0	-0.42168674698795183	2082.0	0.4254545454545455	-468.0	-0.8281818181818181	-911.0	-0.14081632653061227	138.0	95.27290364927055	39910.0	0.9521682658717903	0.29206939143692223	-0.00345254103289095	0.08977273535316824	1.522816003292375E12	1.522816003305E12	27.23614479017266	25993.0	1730.46875	56704.0	3837.362637362637	2619.0	0.0	0.0	
0.623911011678776	0.9559150345507608	-0.011211604659494395	0.2934292872921506	1.0175166869491445	-118.0	-0.21248663200206505	-33.0	0.7583434745731457	55.0	0.6626506024096386	1235.0	9.783132530120483	1992.0	-0.42168674698795183	2082.0	0.42454545454545456	-467.0	-0.82	-902.0	-0.13877551020408163	136.0	95.27290364927055	39910.0	0.9517352054583144	0.29338977299902613	-0.0034410695795257028	0.09005941833561423	1.5228160033001875E12	1.522816003306E12	27.23614479017266	25993.0	1738.28125	56960.0	3849.0842490842488	2627.0	0.0	0.0	
0.6267342147425772	0.9560291449496234	-0.011128579077516815	0.29306045235515316	1.0584263065179111	-121.0	-0.16566353493834424	-36.0	0.47988843217850824	73.0	0.710843373493976	1235.0	9.783132530120483	1988.0	-0.3855421686746988	2079.0	0.42272727272727273	-465.0	-0.8181818181818182	-900.0	-0.13571428571428573	133.0	95.27290364927055	39910.0	0.9513010081492226	0.2947089003446347	-0.003430534853104409	0.09033984382624592	1.522816003308E12	1.522816003312E12	27.23614479017266	25993.0	1746.09375	57216.0	3853.4798534798533	2630.0	0.0	0.0	
0.6295471873089249	0.9561394424533629	-0.011040230034781702	0.2927037408468658	0.9464918368092329	-131.0	-0.01219913072062521	-29.0	0.5081266664231712	71.0	0.7228915662650602	1235.0	9.783132530120483	1987.0	-0.3373493975903615	2075.0	0.4209090909090909	-463.0	-0.8254545454545454	-908.0	-0.13979591836734695	137.0	95.28481626210171	39914.0	0.9508664989596601	0.2960219158398026	-0.003418068433431056	0.09062142851950447	1.5228160033158125E12	1.522816003325E12	27.23614479017266	25993.0	1753.90625	57472.0	3856.4102564102564	2632.0	0.0	0.0	
0.6323527618453709	0.9562641528123446	-0.010926895610242722	0.2923003130316744	1.0030534351145048	-129.0	-0.04267539076699375	-33.0	0.1087604507451834	97.0	0.6987951807228916	1235.0	9.783132530120483	1989.0	-0.3373493975903615	2075.0	0.42454545454545456	-467.0	-0.8236363636363636	-906.0	-0.13979591836734695	137.0	95.28481626210171	39914.0	0.9504312589216257	0.2973357603740642	-0.0033975516129559576	0.09088632631187336	1.522816003323625E12	1.522816003329E12	27.23614479017266	25993.0	1761.71875	57728.0	3835.8974358974356	2618.0	0.0	0.0	
0.6351452169733601	0.9563918540248503	-0.01079616363795081	0.29188707474914644	0.8761622227849921	-126.0	-0.08827466444774094	-25.0	0.04717629608190727	101.0	0.6506024096385542	1235.0	9.783132530120483	1993.0	-0.3253012048192771	2074.0	0.42363636363636364	-466.0	-0.8209090909090909	-903.0	-0.13979591836734695	137.0	95.27588180130535	39911.0	0.9499961969770726	0.29864432636022376	-0.0033712259293739093	0.0911450870737447	1.5228160033314375E12	1.522816003364E12	27.23614479017266	25993.0	1769.53125	57984.0	3857.8754578754574	2633.0	0.0	0.0	
0.6379175699808574	0.9565194240980001	-0.010619168316199478	0.29147525553209735	0.6735560996687303	-141.0	0.14114935906668627	-12.0	-0.09045081376926425	110.0	0.6024096385542169	1235.0	9.783132530120483	1997.0	-0.26506024096385544	2069.0	0.42272727272727273	-465.0	-0.8236363636363636	-906.0	-0.13877551020408163	136.0	95.26992549801776	39909.0	0.949562434901051	0.29994347868792276	-0.003329937903286226	0.09140023703981912	1.52281600333925E12	1.522816003366E12	27.23614479017266	25993.0	1777.34375	58240.0	3857.8754578754574	2633.0	0.0	0.0	
0.6406778129400843	0.9566451906701485	-0.010450659435461451	0.2910683130899687	0.5635236354513841	-134.0	0.03361645701179111	-5.0	-0.16636203992402268	115.0	0.6024096385542169	1235.0	9.783132530120483	1997.0	-0.1566265060240964	2060.0	0.4218181818181818	-464.0	-0.8254545454545454	-908.0	-0.13571428571428573	133.0	95.26992549801776	39909.0	0.9491287549283817	0.30123632476603657	-0.0032907898042267817	0.09165399015872379	1.5228160033470625E12	1.522816003367E12	27.23614479017266	25993.0	1785.15625	58496.0	3854.945054945055	2631.0	0.0	0.0	
0.6434560053922692	0.9567798191673497	-0.010291815817919017	0.29063113419120135	0.9273025611757135	-124.0	-0.1192123849611188	-29.0	-0.2419205250766925	120.0	0.6024096385542169	1237.0	9.759036144578314	1997.0	-0.08433734939759037	2054.0	0.42272727272727273	-465.0	-0.8236363636363636	-906.0	-0.14183673469387756	139.0	95.26992549801776	39909.0	0.9486904292831443	0.30253987495750573	-0.0032543377360829207	0.09189941639183423	1.522816003354875E12	1.522816003368E12	27.23614479017266	25993.0	1792.96875	58752.0	3832.9670329670325	2616.0	0.0	0.0	
0.6462289162280264	0.9569135090601928	-0.010124324233070919	0.2901965441505709	0.9077223504349372	-134.0	0.03401384697319358	-28.0	-0.34766554233978353	127.0	0.6385542168674699	1235.0	9.783132530120483	1994.0	-0.08433734939759037	2054.0	0.42454545454545456	-467.0	-0.82	-902.0	-0.13877551020408163	136.0	95.26396919785819	39907.0	0.9482511115726104	0.30384050192185136	-0.003214689444207992	0.09214360837824662	1.5228160033626875E12	1.522816003378E12	27.23614479017266	25993.0	1800.78125	59008.0	3850.5494505494503	2628.0	0.0	0.0	
0.6490024359912888	0.9570549161211686	-0.009925283178150942	0.28973673616257034	1.0256573367260378	-136.0	0.06439072660446689	-36.0	-0.5445292620865139	140.0	0.5783132530120483	1235.0	9.783132530120483	1999.0	-0.12048192771084337	2057.0	0.42	-462.0	-0.8236363636363636	-906.0	-0.13877551020408163	136.0	95.26396919785819	39907.0	0.947809874004506	0.3051436330427784	-0.0031645383320677806	0.09237852374963434	1.5228160033705E12	1.522816003379E12	27.23614479017266	25993.0	1808.59375	59264.0	3862.271062271062	2636.0	0.0	0.0	
0.651760285929219	0.9571987413620239	-0.009720913139995046	0.28926816863021776	0.8835262250677163	-131.0	-0.012241882717135203	-27.0	-0.7099588419460374	151.0	0.5542168674698795	1237.0	9.759036144578314	2001.0	-0.08433734939759037	2054.0	0.41909090909090907	-461.0	-0.8263636363636364	-909.0	-0.13673469387755102	134.0	95.26992549801776	39909.0	0.9473693220201199	0.3064402183965086	-0.003112079672602625	0.09260710126307617	1.5228160033783125E12	1.522816003385E12	27.23614479017266	25993.0	1816.40625	59520.0	3866.6666666666665	2639.0	0.0	0.0	
0.6545302563403451	0.9573417329522371	-0.0095068121832942	0.2888017085650966	1.0779466349184128	-133.0	0.01834862385321086	-40.0	-0.5845647454303526	143.0	0.5662650602409639	1236.0	9.771084337349398	2000.0	-0.060240963855421686	2052.0	0.43	-473.0	-0.8136363636363636	-895.0	-0.1346938775510204	132.0	95.27290364927055	39910.0	0.9469250206026844	0.30774182266794303	-0.0030560077016873635	0.09283661322207613	1.522816003386125E12	1.522816003393E12	27.23614479017266	25993.0	1824.21875	59776.0	3831.501831501831	2615.0	0.0	0.0	
0.6573081475128745	0.9574870709281408	-0.009280671702212627	0.28832685989724516	1.256230611035589	-142.0	0.15566942033532036	-52.0	-0.6276970267349855	146.0	0.5662650602409639	1235.0	9.783132530120483	2000.0	-0.08433734939759037	2054.0	0.4263636363636364	-469.0	-0.8172727272727273	-899.0	-0.13877551020408163	136.0	95.27290364927055	39910.0	0.9464776245266896	0.30904755808527257	-0.00299551713442944	0.09306309681577472	1.5228160033939375E12	1.5228160034E12	27.23614479017266	25993.0	1832.03125	60032.0	3846.1538461538457	2625.0	0.0	0.0	
