belt	belt	belt	belt	belt	belt	belt	belt	belt	belt	belt	belt	belt	belt	belt	belt	belt	belt	belt	belt	belt	belt	belt	belt	belt	belt	belt	belt	belt	belt	belt	belt	belt	belt	belt	belt	Annotation	Annotation	
Axis Angle A	Axis Angle X	Axis Angle Y	Axis Angle Z	Gyroscope X	Gyroscope X	Gyroscope Y	Gyroscope Y	Gyroscope Z	Gyroscope Z	Low Noise Accelerometer X	Low Noise Accelerometer X	Low Noise Accelerometer Y	Low Noise Accelerometer Y	Low Noise Accelerometer Z	Low Noise Accelerometer Z	Magnetometer X	Magnetometer X	Magnetometer Y	Magnetometer Y	Magnetometer Z	Magnetometer Z	Pressure	Pressure	Quaternion 0	Quaternion 1	Quaternion 2	Quaternion 3	SyncTimestamp	SystemTimestamp	Temperature	Temperature	Timestamp	Timestamp	VSenseBatt	VSenseBatt	Level	Pulse	
CAL	CAL	CAL	CAL	CAL	RAW	CAL	RAW	CAL	RAW	CAL	RAW	CAL	RAW	CAL	RAW	CAL	RAW	CAL	RAW	CAL	RAW	CAL	RAW	CAL	CAL	CAL	CAL	CAL	UNCAL	CAL	RAW	CAL	RAW	CAL	RAW	no format	no format	
local	local	local	local	deg/s	No Units	deg/s	No Units	deg/s	No Units	m/s^2	No Units	m/s^2	No Units	m/s^2	No Units	local flux	No Units	local flux	No Units	local flux	No Units	kPa	No Units	local	local	local	local	mSecs	mSecs	Degrees Celsius	No Units	mSecs	No Units	mV	No Units	no unit	no unit	
0.0031370102300588747	0.9242426740612014	-0.07743149917539047	0.3738714247598506	0.1609017175572519	-141.0	0.16954914122137404	-1.0	0.10967318702290076	100.0	0.5060240963855422	1236.0	9.771084337349398	2005.0	-0.08433734939759037	2054.0	0.42818181818181816	-471.0	-0.8154545454545454	-897.0	-0.15000000000000002	147.0	95.27923975408373	39906.0	0.9999987698961043	0.0014496787673746873	-1.2145165272158938E-4	5.864190016469513E-4	1.5228160232445E12	1.522816023253E12	27.302700098898736	26004.0	1683.59375	55168.0	3844.688644688644	2624.0	0.0	0.0	
0.006240133404910714	0.9245351165442571	-0.07683810816812596	0.37327030875217593	-0.3511450381679389	-137.0	-0.061068702290076333	22.0	0.0	100.0	0.42168674698795183	1235.0	9.783132530120483	2012.0	-0.060240963855421686	2052.0	0.4290909090909091	-472.0	-0.8090909090909091	-890.0	-0.15510204081632656	152.0	95.28221833522181	39907.0	0.9999951325958347	0.0028846065521893247	-2.397396338043781E-4	0.0011646263717801312	1.5228160232523125E12	1.522816023254E12	27.302700098898736	26004.0	1691.40625	55424.0	3850.5494505494503	2628.0	0.0	0.0	
0.00937139044365243	0.925790358508608	-0.07366627940031488	0.3707903604274664	0.16030534351145037	-136.0	-0.04580152671755725	0.0	-0.15267175572519084	110.0	0.3373493975903615	1235.0	9.783132530120483	2019.0	-0.04819277108433735	2051.0	0.43	-473.0	-0.8172727272727273	-899.0	-0.15612244897959185	153.0	95.27626117372786	39905.0	0.9999890221502297	0.004337955585398616	-3.451764702917455E-4	0.0017374042624719538	1.522816023260125E12	1.522816023269E12	27.302700098898736	26004.0	1699.21875	55680.0	3853.4798534798533	2630.0	0.0	0.0	
0.012492508528730751	0.9264510641114707	-0.07129391629607658	0.3696019525187161	0.030534351145038167	-136.0	-0.030534351145038167	5.0	-0.2239185750636133	118.0	0.3132530120481928	1236.0	9.771084337349398	2021.0	-0.07228915662650603	2053.0	0.4263636363636364	-469.0	-0.8181818181818182	-900.0	-0.15306122448979592	150.0	95.27626117372786	39905.0	0.9999804922172584	0.005786811280352745	-4.453170329491041E-4	0.0023086127599486065	1.5228160232679375E12	1.52281602332E12	27.302700098898736	26004.0	1707.03125	55936.0	3854.945054945055	2631.0	0.0	0.0	
0.01561656533893343	0.9265727316570068	-0.06941333521416593	0.3696549226542524	-0.03816793893129771	-132.0	-0.08396946564885496	9.0	0.061068702290076333	103.0	0.27710843373493976	1235.0	9.783132530120483	2024.0	-0.08433734939759037	2054.0	0.43	-473.0	-0.8181818181818182	-900.0	-0.15612244897959185	153.0	95.27328259415424	39904.0	0.9999695155157621	0.007234868284625314	-5.419934348520571E-4	0.002886340796349778	1.52281602327575E12	1.52281602332E12	27.302700098898736	26004.0	1714.84375	56192.0	3838.8278388278386	2620.0	0.0	0.0	
0.018736715220209067	0.9266578461087086	-0.06801197760578247	0.36970205185447813	-0.12213740458015267	-138.0	0.024427480916030447	15.0	0.1404580152671756	97.0	0.3132530120481928	1236.0	9.771084337349398	2021.0	-0.08433734939759037	2054.0	0.4354545454545454	-479.0	-0.8045454545454546	-885.0	-0.15204081632653063	149.0	95.27626117372786	39905.0	0.9999561172587975	0.008681135098324971	-6.371512078372736E-4	0.0034634503681741464	1.5228160232835625E12	1.522816023321E12	27.302700098898736	26004.0	1722.65625	56448.0	3856.4102564102564	2632.0	0.0	0.0	
0.02185351592557983	0.9266625433525152	-0.06768852055047972	0.36974963817533624	-0.16284987277353688	-134.0	-0.040712468193384074	19.0	0.10178117048346062	98.0	0.3373493975903615	1236.0	9.771084337349398	2019.0	-0.07228915662650603	2053.0	0.4263636363636364	-469.0	-0.8172727272727273	-899.0	-0.15714285714285717	154.0	95.27626117372786	39905.0	0.9999403035741646	0.010125215839852928	-7.396013633770099E-4	0.004040084408384911	1.522816023291375E12	1.522816023321E12	27.302700098898736	26004.0	1730.46875	56704.0	3856.4102564102564	2632.0	0.0	0.0	
0.024983939731523627	0.9267238207219702	-0.06704463659911689	0.36971337115307257	0.04362050163576882	-139.0	0.041439476553980496	7.0	0.14830970556161385	94.0	0.3373493975903615	1235.0	9.783132530120483	2019.0	-0.060240963855421686	2052.0	0.42727272727272725	-470.0	-0.8209090909090909	-903.0	-0.15510204081632656	152.0	95.27328259415424	39904.0	0.9999219763590723	0.011576304957792034	-8.374977978348216E-4	0.004618328174738213	1.5228160232991875E12	1.522816023321E12	27.302700098898736	26004.0	1738.28125	56960.0	3852.014652014652	2629.0	0.0	0.0	
0.02808878370177334	0.9269521907342666	-0.06586567968030543	0.36935260704983414	-0.282442748091603	-131.0	-0.08587786259541984	28.0	-0.05343511450381679	106.0	0.22891566265060243	1234.0	9.795180722891567	2028.0	-0.060240963855421686	2052.0	0.4263636363636364	-469.0	-0.82	-902.0	-0.15816326530612246	155.0	95.27626117372786	39905.0	0.999901379149824	0.01301805182638098	-9.250130052325769E-4	0.005187162217044776	1.522816023307E12	1.522816023321E12	27.302700098898736	26004.0	1746.09375	57216.0	3850.5494505494503	2628.0	0.0	0.0	
0.031210230462717124	0.9271242482970117	-0.06508046876112446	0.36905983363825157	-0.08312128922815945	-120.0	-0.24427480916030533	17.0	0.08990670059372344	97.0	0.22891566265060243	1233.0	9.807228915662652	2028.0	-0.03614457831325302	2050.0	0.42727272727272725	-470.0	-0.8090909090909091	-890.0	-0.15408163265306124	151.0	95.27626117372786	39905.0	0.9998782426601965	0.014467293533471738	-0.0010155469955538214	0.005758987486808074	1.5228160233148125E12	1.522816023325E12	27.302700098898736	26004.0	1753.90625	57472.0	3859.340659340659	2634.0	0.0	0.0	
0.03433707275324046	0.9273392789843161	-0.06379513921769282	0.3687438702743893	-0.01374045801526718	-127.0	-0.1129770992366413	13.0	0.1725190839694656	91.0	0.1927710843373494	1234.0	9.795180722891567	2031.0	-0.07228915662650603	2053.0	0.4290909090909091	-472.0	-0.7990909090909091	-879.0	-0.15306122448979592	150.0	95.27626117372786	39905.0	0.9998526242994175	0.01592027601132695	-0.0010952153624281835	0.006330481545743415	1.522816023322625E12	1.522816023337E12	27.302700098898736	26004.0	1761.71875	57728.0	3844.688644688644	2624.0	0.0	0.0	
0.03745358088349743	0.9275252938918299	-0.06254867113012733	0.36848947465360476	-0.14989590562109645	-130.0	-0.05690492713393465	22.0	0.12630117973629415	93.0	0.1927710843373494	1233.0	9.807228915662652	2031.0	-0.08433734939759037	2054.0	0.43	-473.0	-0.8018181818181818	-882.0	-0.1510204081632653	148.0	95.27328259415424	39904.0	0.9998246587842053	0.0173685565956532	-0.0011712673947123775	0.006900221845777553	1.5228160233304375E12	1.522816023347E12	27.302700098898736	26004.0	1769.53125	57984.0	3849.0842490842488	2627.0	0.0	0.0	
0.04058733388911777	0.9276850176901716	-0.06139258173280242	0.36828176558287906	0.0916030534351145	-124.0	-0.14376590330788788	7.0	0.2073791348600508	87.0	0.1566265060240964	1235.0	9.783132530120483	2034.0	-0.12048192771084337	2057.0	0.42818181818181816	-471.0	-0.8172727272727273	-899.0	-0.15408163265306124	151.0	95.27328259415424	39904.0	0.999794090607806	0.018824838601674193	-0.0012457950925387042	0.0074732745111043076	1.52281602333825E12	1.522816023355E12	27.302700098898736	26004.0	1777.34375	58240.0	3838.8278388278386	2620.0	0.0	0.0	
0.043721536499726814	0.9279316056679154	-0.060532123811652794	0.36780266066178463	0.14562536699941278	-123.0	-0.1479741632413386	3.0	0.09982384028185547	93.0	0.18072289156626506	1234.0	9.795180722891567	2032.0	-0.21686746987951808	2065.0	0.42727272727272725	-470.0	-0.8109090909090909	-892.0	-0.15510204081632656	152.0	95.27328259415424	39904.0	0.9997610629215238	0.020283682120896658	-0.0013231733351883803	0.008039808329099589	1.5228160233460625E12	1.522816023363E12	27.302700098898736	26004.0	1785.15625	58496.0	3847.6190476190473	2626.0	0.0	0.0	
0.046837031368891134	0.9280870592654805	-0.059617896292814915	0.3675596779642504	-0.18538713195201742	-124.0	-0.12213740458015267	24.0	0.21483097055616135	85.0	0.1566265060240964	1233.0	9.807228915662652	2034.0	-0.30120481927710846	2072.0	0.4290909090909091	-472.0	-0.8072727272727273	-888.0	-0.15714285714285717	154.0	95.27923975408373	39906.0	0.9997257990935079	0.0217324347849442	-0.0013960350273869583	0.008606915322421487	1.522816023353875E12	1.522816023368E12	27.302700098898736	26004.0	1792.96875	58752.0	3856.4102564102564	2632.0	0.0	0.0	
0.04995615313215507	0.9281385900206797	-0.05913520976826414	0.36750753009978004	-0.15776081424936383	-114.0	-0.26666666666666666	23.0	0.2768447837150128	80.0	0.1927710843373494	1234.0	9.795180722891567	2031.0	-0.3493975903614458	2076.0	0.42727272727272725	-470.0	-0.8181818181818182	-900.0	-0.15306122448979592	150.0	95.27923975408373	39906.0	0.9996880640642167	0.02318070616626073	-0.0014769302089764201	0.009178676719972833	1.5228160233616875E12	1.522816023379E12	27.302700098898736	26004.0	1800.78125	59008.0	3818.3150183150183	2606.0	0.0	0.0	
0.0530509489966776	0.9281793739938942	-0.058796920120864606	0.3674588029653104	-0.5143129770992366	-115.0	-0.23473282442748092	47.0	0.22900763358778625	82.0	0.21686746987951808	1236.0	9.771084337349398	2029.0	-0.30120481927710846	2072.0	0.4309090909090909	-474.0	-0.8181818181818182	-900.0	-0.15510204081632656	152.0	95.27030401536283	39903.0	0.9996482202280886	0.024617511261013376	-0.0015594333204799378	0.009745876145720657	1.5228160233695E12	1.52281602338E12	27.302700098898736	26004.0	1808.59375	59264.0	3841.7582417582416	2622.0	0.0	0.0	
0.05614165726496226	0.9282174554030693	-0.05854845489250417	0.3674022780480802	-0.5756623259991018	-117.0	-0.1903906600808262	53.0	0.24607094746295474	80.0	0.24096385542168675	1234.0	9.795180722891567	2027.0	-0.24096385542168675	2067.0	0.4263636363636364	-469.0	-0.8109090909090909	-892.0	-0.15510204081632656	152.0	95.27328259415424	39904.0	0.9996060401600534	0.026052411383806855	-0.0016432878135042384	0.010311932010479108	1.5228160233773125E12	1.522816023392E12	27.302700098898736	26004.0	1816.40625	59520.0	3850.5494505494503	2628.0	0.0	0.0	
0.059232617339074096	0.928125324801108	-0.058322492445406306	0.36767086958022743	-0.6658184902459711	-125.0	-0.057675996607294215	61.0	0.522476675148431	61.0	0.27710843373493976	1236.0	9.771084337349398	2024.0	-0.14457831325301207	2059.0	0.4263636363636364	-469.0	-0.8172727272727273	-899.0	-0.15510204081632656	152.0	95.27328259415424	39904.0	0.9995614691856899	0.027483627925899083	-0.0017270444402797676	0.010887462187178404	1.522816023385125E12	1.5228160234E12	27.302700098898736	26004.0	1824.21875	59776.0	3846.1538461538457	2625.0	0.0	0.0	
0.06232186715618034	0.9281275904103218	-0.05845687887576433	0.36764380755157955	-0.6002410606669345	-120.0	-0.13097629570108457	59.0	0.2965046203294495	74.0	0.3493975903614458	1235.0	9.783132530120483	2018.0	-0.08433734939759037	2054.0	0.4290909090909091	-472.0	-0.8190909090909091	-901.0	-0.15408163265306124	151.0	95.27328259415424	39904.0	0.9995145373933471	0.02891664197179753	-0.0018212761421001417	0.011454270367522985	1.5228160233929375E12	1.522816023402E12	27.302700098898736	26004.0	1832.03125	60032.0	3852.014652014652	2629.0	0.0	0.0	
0.06541633048708397	0.928065433686133	-0.058506827145054195	0.36779274323250677	-0.585496183206107	-128.0	-0.0022900763358779494	60.0	0.5106870229007634	59.0	0.3734939759036145	1234.0	9.795180722891567	2016.0	-0.03614457831325302	2050.0	0.4290909090909091	-472.0	-0.8190909090909091	-901.0	-0.15306122448979592	150.0	95.27626117372786	39905.0	0.9994651356499812	0.030349905376423018	-0.001913309776741084	0.012027680969547584	1.52281602340075E12	1.522816023418E12	27.302700098898736	26004.0	1839.84375	60288.0	3841.7582417582416	2622.0	0.0	0.0	
0.06850426399524069	0.9281271330747546	-0.05868931876055697	0.36760792798018865	-0.5881497637222829	-123.0	-0.07851690294438379	62.0	0.2726281352235551	73.0	0.39759036144578314	1235.0	9.783132530120483	2014.0	0.024096385542168676	2045.0	0.43272727272727274	-476.0	-0.81	-891.0	-0.15408163265306124	151.0	95.27626117372786	39905.0	0.9994134530753283	0.03178411732220369	-0.0020098412454185926	0.01258889336936715	1.5228160234085625E12	1.522816023453E12	27.302700098898736	26004.0	1847.65625	60544.0	3847.6190476190473	2626.0	0.0	0.0	
0.0716080145928693	0.9281453715713419	-0.05937063212754867	0.367452442189917	-0.37820957668285904	-114.0	-0.21235253296321993	50.0	0.3823733518390007	65.0	0.49397590361445787	1236.0	9.771084337349398	2006.0	0.03614457831325302	2044.0	0.42727272727272725	-470.0	-0.8181818181818182	-900.0	-0.15816326530612246	155.0	95.27626117372786	39905.0	0.9993591050001941	0.033224224089464606	-0.002125252408250817	0.013153459205286192	1.522816023416375E12	1.522816023455E12	27.302700098898736	26004.0	1855.46875	60800.0	3838.8278388278386	2620.0	0.0	0.0	
0.07469882075990514	0.9281982920104538	-0.06029354393166113	0.3671683799960252	-0.4991702621971457	-115.0	-0.187852638566213	59.0	0.21307666777298376	75.0	0.5903614457831325	1236.0	9.771084337349398	1998.0	0.07228915662650603	2041.0	0.43	-473.0	-0.8163636363636364	-898.0	-0.15816326530612246	155.0	95.27626117372786	39905.0	0.9993025918502353	0.03465959937821668	-0.0022514047868348657	0.013710334380649492	1.5228160234241875E12	1.522816023456E12	27.302700098898736	26004.0	1863.28125	61056.0	3853.4798534798533	2630.0	0.0	0.0	
0.07780547071126297	0.9283335850721601	-0.060885467575879745	0.36672839359024073	-0.17302798982188286	-125.0	-0.027353689567430096	39.0	0.06679389312977099	84.0	0.5783132530120483	1236.0	9.771084337349398	1999.0	0.04819277108433735	2043.0	0.43	-473.0	-0.8190909090909091	-901.0	-0.15408163265306124	151.0	95.27626117372786	39905.0	0.99924338402147	0.036105606998616986	-0.0023680138256022215	0.014263139314489125	1.522816023432E12	1.522816023457E12	27.302700098898736	26004.0	1871.09375	61312.0	3841.7582417582416	2622.0	0.0	0.0	
0.08090313387168127	0.928575514582847	-0.06131344668056204	0.3660439522426826	-0.18137404580152675	-127.0	0.004274809160305361	40.0	-0.24122137404580146	104.0	0.5662650602409639	1235.0	9.783132530120483	2000.0	-0.012048192771084338	2048.0	0.4318181818181818	-475.0	-0.8118181818181818	-893.0	-0.15204081632653063	149.0	95.27030401536283	39903.0	0.9991819469256938	0.03755209136332456	-0.0024795486370143473	0.014803013564044653	1.5228160234398125E12	1.522816023458E12	27.302700098898736	26004.0	1878.90625	61568.0	3837.362637362637	2619.0	0.0	0.0	
0.08400686786804867	0.9289098589809693	-0.06160483937018768	0.3651456115771696	-0.02172636523781557	-128.0	0.019377568995889674	30.0	-0.3693482090428655	113.0	0.5421686746987953	1234.0	9.795180722891567	2002.0	-0.10843373493975904	2056.0	0.43636363636363634	-480.0	-0.8072727272727273	-888.0	-0.15714285714285717	154.0	95.27923975408373	39906.0	0.9991179854576553	0.039005931911826205	-0.002586853984463697	0.015332860045974615	1.522816023447625E12	1.522816023459E12	27.302700098898736	26004.0	1886.71875	61824.0	3854.945054945055	2631.0	0.0	0.0	
0.08710562454867647	0.929123071561855	-0.06220495891754832	0.3645008381027378	-0.17359344076901323	-110.0	-0.2561492790500423	40.0	-0.20299689001979068	103.0	0.5783132530120483	1237.0	9.759036144578314	1999.0	-0.22891566265060243	2066.0	0.4309090909090909	-474.0	-0.8163636363636364	-898.0	-0.15510204081632656	152.0	95.27923975408373	39906.0	0.9990517261799475	0.04045313098164897	-0.002708344489357727	0.01587001829790343	1.5228160234554375E12	1.522816023463E12	27.302700098898736	26004.0	1894.53125	62080.0	3853.4798534798533	2630.0	0.0	0.0	
0.0901894412002821	0.9293894553665301	-0.06258297408763447	0.36375625301560177	-0.2742639040348963	-123.0	-0.04852780806979283	47.0	-0.4858233369683751	122.0	0.5783132530120483	1235.0	9.783132530120483	1999.0	-0.30120481927710846	2072.0	0.42727272727272725	-470.0	-0.8172727272727273	-899.0	-0.15306122448979592	150.0	95.28221833522181	39907.0	0.9989834053778112	0.04189635483982796	-0.0028212053344991266	0.016397927654061405	1.52281602346325E12	1.522816023471E12	27.302700098898736	26004.0	1902.34375	62336.0	3841.7582417582416	2622.0	0.0	0.0	
0.09325139354119907	0.9296906626498336	-0.06251665349480864	0.36299716227178996	-0.5548828639115557	-140.0	0.2126875493550934	66.0	-0.5759410371150302	129.0	0.5060240963855422	1234.0	9.795180722891567	2005.0	-0.3253012048192771	2074.0	0.43636363636363634	-480.0	-0.8181818181818182	-900.0	-0.15510204081632656	152.0	95.27626117372786	39905.0	0.9989132191061816	0.043331770719972657	-0.0029138265062229086	0.016918863918380912	1.5228160234710625E12	1.52281602348E12	27.302700098898736	26004.0	1910.15625	62592.0	3846.1538461538457	2625.0	0.0	0.0	
0.09629797367828334	0.9300035312599978	-0.06217422915099118	0.3622537744087387	-0.7501272264631044	-146.0	0.2972010178117048	80.0	-0.6483460559796438	135.0	0.42168674698795183	1235.0	9.783132530120483	2012.0	-0.3132530120481928	2073.0	0.43272727272727274	-476.0	-0.8172727272727273	-899.0	-0.15714285714285717	154.0	95.27626117372786	39905.0	0.9988410614588145	0.04476142785227066	-0.002992469575510246	0.01743541356820539	1.522816023478875E12	1.522816023481E12	27.302700098898736	26004.0	1917.96875	62848.0	3857.8754578754574	2633.0	0.0	0.0	
0.09933379110498065	0.9302960231427596	-0.061633080143862796	0.3615946249001405	-0.9396700320118195	-134.0	0.1044077813346467	94.0	-0.5816301403595173	132.0	0.30120481927710846	1235.0	9.783132530120483	2022.0	-0.24096385542168675	2067.0	0.43363636363636365	-477.0	-0.8118181818181818	-893.0	-0.15510204081632656	152.0	95.27626117372786	39905.0	0.998766853268274	0.046185921372358024	-0.003059865379026631	0.017951899716701653	1.5228160234866875E12	1.522816023499E12	27.302700098898736	26004.0	1925.78125	63104.0	3818.3150183150183	2606.0	0.0	0.0	
0.10235596728999767	0.9305759428047277	-0.0608999855785227	0.36099806984200217	-1.0935114503816794	-147.0	0.299618320610687	106.0	-0.670324427480916	139.0	0.26506024096385544	1234.0	9.795180722891567	2025.0	-0.1927710843373494	2063.0	0.42818181818181816	-471.0	-0.8190909090909091	-901.0	-0.15408163265306124	151.0	95.27626117372786	39905.0	0.9986906928090349	0.04760421331461562	-0.0031153780911198094	0.018467089393185927	1.5228160234945E12	1.5228160235E12	27.302700098898736	26004.0	1933.59375	63360.0	3843.223443223443	2623.0	0.0	0.0	
0.10538242224197267	0.9308808157415246	-0.060076664101404983	0.36034941558817807	-0.9993060374739766	-146.0	0.27527180198935924	102.0	-0.6958130927596576	142.0	0.21686746987951808	1234.0	9.795180722891567	2029.0	-0.13253012048192772	2058.0	0.42818181818181816	-471.0	-0.8109090909090909	-892.0	-0.15408163265306124	151.0	95.27626117372786	39905.0	0.9986121392803949	0.04902654432048011	-0.003164047626062536	0.018978462436267874	1.5228160235023125E12	1.522816023503E12	27.302700098898736	26004.0	1941.40625	63616.0	3850.5494505494503	2628.0	0.0	0.0	
0.10840173571753489	0.9312002563125419	-0.05926677837840201	0.35965751990478323	-1.076784912438258	-133.0	0.06870229007633588	109.0	-0.7669510552312527	148.0	0.1566265060240964	1235.0	9.783132530120483	2034.0	-0.03614457831325302	2050.0	0.43454545454545457	-478.0	-0.8163636363636364	-898.0	-0.15714285714285717	154.0	95.28221833522181	39907.0	0.9985314925215296	0.05044715352057343	-0.0032107382351509554	0.019484206537176536	1.522816023510125E12	1.522816023517E12	27.302700098898736	26004.0	1949.21875	63872.0	3847.6190476190473	2626.0	0.0	0.0	
0.11143478634279573	0.9314686198376668	-0.05843610744262164	0.3590980807588303	-0.9849509269356596	-134.0	0.08200654307524528	105.0	-0.39389312977099233	125.0	0.13253012048192772	1234.0	9.795180722891567	2036.0	0.024096385542168676	2045.0	0.43272727272727274	-476.0	-0.8018181818181818	-882.0	-0.16020408163265307	157.0	95.28221833522181	39907.0	0.9984481875688985	0.05187215470047042	-0.0032542232135369725	0.01999765832262857	1.5228160235179375E12	1.52281602352E12	27.302700098898736	26004.0	1957.03125	64128.0	3821.245421245421	2608.0	0.0	0.0	
0.11448067715299694	0.9316482635173811	-0.057703892013938024	0.3587502946778606	-0.8812553011026292	-130.0	0.0186598812553012	100.0	-0.12340966921119607	108.0	0.14457831325301207	1234.0	9.795180722891567	2035.0	0.012048192771084338	2046.0	0.42818181818181816	-471.0	-0.8163636363636364	-898.0	-0.15714285714285717	154.0	95.28221833522181	39907.0	0.99836221906957	0.05329874573947213	-0.0033011869275828484	0.020523776503168754	1.52281602352575E12	1.522816023534E12	27.302700098898736	26004.0	1964.84375	64384.0	3840.29304029304	2621.0	0.0	0.0	
0.11753495963661219	0.9318249561489205	-0.05720170194383728	0.35837161772781906	-0.765834536826903	-131.0	0.0334227357128121	94.0	-0.059005570455952	104.0	0.2530120481927711	1235.0	9.783132530120483	2026.0	-0.060240963855421686	2052.0	0.43727272727272726	-481.0	-0.8109090909090909	-892.0	-0.15612244897959185	153.0	95.27923975408373	39906.0	0.9982736885785354	0.05472948916087759	-0.0033596652524282363	0.02104847636734285	1.5228160235335625E12	1.522816023541E12	27.302700098898736	26004.0	1972.65625	64640.0	3844.688644688644	2624.0	0.0	0.0	
0.12059253467149039	0.9319112524543636	-0.056998877654160264	0.3581794878201796	-0.8372840498192042	-129.0	0.002008838891120772	100.0	0.2784250703093611	82.0	0.3614457831325301	1235.0	9.783132530120483	2017.0	-0.10843373493975904	2056.0	0.43454545454545457	-478.0	-0.8145454545454546	-896.0	-0.15816326530612246	155.0	95.27923975408373	39906.0	0.9981827307508302	0.056156727966178384	-0.0034347374370382023	0.021583802113783294	1.522816023541375E12	1.522816023553E12	27.302700098898736	26004.0	1980.46875	64896.0	3844.688644688644	2624.0	0.0	0.0	
0.1236310316918909	0.9320084725593247	-0.056973077894698895	0.3579305455991157	-1.0448228616167545	-135.0	0.09356038363671966	115.0	0.08807985907222554	94.0	0.45783132530120485	1237.0	9.759036144578314	2009.0	-0.10843373493975904	2056.0	0.43	-473.0	-0.8109090909090909	-892.0	-0.15918367346938778	156.0	95.27923975408373	39906.0	0.9980900293082162	0.05757590038218277	-0.0035195777226399894	0.022111573063884622	1.5228160235491875E12	1.522816023554E12	27.302700098898736	26004.0	1988.28125	65152.0	3822.7106227106224	2609.0	0.0	0.0	
0.12666656055225783	0.9321082884089563	-0.0570152423664136	0.3576638097672829	-1.0187022900763358	-140.0	0.16755725190839685	115.0	-0.051526717557251904	103.0	0.5180722891566265	1238.0	9.74698795180723	2004.0	-0.024096385542168676	2049.0	0.42727272727272725	-470.0	-0.8163636363636364	-898.0	-0.15612244897959185	153.0	95.27923975408373	39906.0	0.9979951180883758	0.0589940184861981	-0.003608548817756602	0.02263688207436863	1.522816023557E12	1.522816023561E12	27.302700098898736	26004.0	1996.09375	65408.0	3840.29304029304	2621.0	0.0	0.0	
0.12968552491089017	0.932200684662915	-0.057045943068143395	0.3574180240186912	-1.253397877490225	-149.0	0.30087506981940065	132.0	-0.05026996834853829	103.0	0.5542168674698795	1238.0	9.74698795180723	2001.0	0.024096385542168676	2045.0	0.4309090909090909	-474.0	-0.8109090909090909	-892.0	-0.15612244897959185	153.0	95.28221833522181	39907.0	0.9978984445805643	0.060404117753738426	-0.0036964249427763524	0.023159734556449433	1.5228160235648125E12	1.522816023571E12	27.302700098898736	26004.0	2003.90625	128.0	3849.0842490842488	2627.0	0.0	0.0	
0.132696197217349	0.9323084107901901	-0.0571055457824192	0.35712740557220346	-1.330425299890949	-155.0	0.38531443111595787	139.0	-0.12540894220283524	108.0	0.6024096385542169	1236.0	9.771084337349398	1997.0	0.12048192771084337	2037.0	0.43636363636363634	-480.0	-0.8072727272727273	-888.0	-0.15714285714285717	154.0	95.28221833522181	39907.0	0.9977997722129525	0.06181151729854625	-0.003786065201300949	0.02367734384011573	1.522816023572625E12	1.522816023607E12	27.302700098898736	26004.0	2011.71875	384.0	3847.6190476190473	2626.0	0.0	0.0	
0.13570560862253098	0.9324503670867341	-0.05700257368803302	0.35677306444404117	-1.253683649920114	-173.0	0.6511627906976744	136.0	-0.2904313864725723	119.0	0.5903614457831325	1234.0	9.795180722891567	1998.0	0.28915662650602414	2023.0	0.43454545454545457	-478.0	-0.8127272727272727	-894.0	-0.16020408163265307	157.0	95.27328259415424	39904.0	0.9976988815398555	0.06322083473207588	-0.003864817278900702	0.024189481542640574	1.5228160235804375E12	1.52281602361E12	27.302700098898736	26004.0	2019.53125	640.0	3856.4102564102564	2632.0	0.0	0.0	
0.13872686183453198	0.9326340242642648	-0.05683043950763011	0.35632019018015587	-1.0267175572519083	-169.0	0.5752949340735601	123.0	-0.36016655100624567	124.0	0.5542168674698795	1235.0	9.783132530120483	2001.0	0.45783132530120485	2009.0	0.4390909090909091	-483.0	-0.8	-880.0	-0.15918367346938778	156.0	95.27626117372786	39905.0	0.9975953215905464	0.06463883395590209	-0.00393879404718539	0.024695776702292307	1.52281602358825E12	1.522816023611E12	27.302700098898736	26004.0	2027.34375	896.0	3844.688644688644	2624.0	0.0	0.0	
0.14176177110494365	0.9328489802663219	-0.05673106805307507	0.35577291343444584	-0.6985581000848173	-149.0	0.25716709075487687	103.0	-0.6727735368956742	145.0	0.5180722891566265	1234.0	9.795180722891567	2004.0	0.6024096385542169	1997.0	0.42727272727272725	-470.0	-0.81	-891.0	-0.15510204081632656	152.0	95.27626117372786	39905.0	0.9974890015880381	0.06606580916054627	-0.0040177820791511155	0.02519638859093923	1.5228160235960625E12	1.522816023612E12	27.302700098898736	26004.0	2035.15625	1152.0	3859.340659340659	2634.0	0.0	0.0	
0.14480905017493542	0.9331013024886228	-0.05645290662370486	0.3551549360881974	-0.484898771988052	-152.0	0.2973780285429804	90.0	-0.6581480252240293	145.0	0.44578313253012053	1236.0	9.771084337349398	2010.0	0.710843373493976	1988.0	0.44	-484.0	-0.81	-891.0	-0.15918367346938778	156.0	95.27626117372786	39905.0	0.9973799372949114	0.06750174187943514	-0.004083875481787406	0.025692362403839958	1.522816023603875E12	1.522816023621E12	27.302700098898736	26004.0	2042.96875	1408.0	3859.340659340659	2634.0	0.0	0.0	
0.14788946993954646	0.933370250065696	-0.05612933142882237	0.35449890612750184	0.044502192626278504	-140.0	0.10784472957609245	56.0	-0.6594120513236965	146.0	0.3734939759036145	1235.0	9.783132530120483	2016.0	0.7951807228915663	1981.0	0.4318181818181818	-475.0	-0.8154545454545454	-897.0	-0.15918367346938778	156.0	95.27923975408373	39906.0	0.9972673335704957	0.06895493675318624	-0.004146687231996793	0.02618944588106923	1.5228160236116875E12	1.522816023624E12	27.302700098898736	26004.0	2050.78125	1664.0	3869.5970695970695	2641.0	0.0	0.0	
0.15099768436628808	0.9336292119406044	-0.05578850085044383	0.3538702273207455	0.440521628498728	-137.0	0.05979643765903293	30.0	-0.508269720101781	137.0	0.3493975903614458	1236.0	9.771084337349398	2018.0	0.8795180722891567	1974.0	0.42818181818181816	-471.0	-0.8172727272727273	-899.0	-0.16020408163265307	157.0	95.27923975408373	39906.0	0.9971513159430123	0.07042097920098453	-0.004207966939977396	0.026691418391038134	1.5228160236195E12	1.522816023625E12	27.302700098898736	26004.0	2058.59375	1920.0	3844.688644688644	2624.0	0.0	0.0	
0.15411701084895835	0.933966355033124	-0.05532927322171911	0.3530517231099626	0.7521420782053284	-128.0	-0.07882847795606779	9.0	-0.8185075556940333	158.0	0.27710843373493976	1237.0	9.759036144578314	2024.0	0.8674698795180723	1975.0	0.4390909090909091	-483.0	-0.8118181818181818	-893.0	-0.15714285714285717	154.0	95.27923975408373	39906.0	0.9970324622468332	0.07189884605987547	-0.0042593728098825195	0.027178721539874648	1.5228160236273125E12	1.522816023636E12	27.302700098898736	26004.0	2066.40625	2176.0	3846.1538461538457	2625.0	0.0	0.0	
0.15726894367621375	0.9343375101652204	-0.05478254175634399	0.3521537877362485	1.2867175572519085	-124.0	-0.13832061068702292	-27.0	-0.8174045801526716	159.0	0.20481927710843376	1233.0	9.807228915662652	2030.0	0.855421686746988	1976.0	0.43454545454545457	-478.0	-0.8118181818181818	-893.0	-0.16122448979591839	158.0	95.27923975408373	39906.0	0.9969099026823101	0.07339544337472871	-0.004303358152334539	0.027662898155958213	1.522816023635125E12	1.522816023642E12	27.302700098898736	26004.0	2074.21875	2432.0	3854.945054945055	2631.0	0.0	0.0	
0.1604169538745953	0.9346900373412622	-0.05409817918197869	0.3513231007265831	1.2004190989372847	-107.0	-0.39515042658284677	-23.0	-0.6792396347852117	151.0	0.060240963855421686	1233.0	9.807228915662652	2042.0	0.8795180722891567	1974.0	0.43454545454545457	-478.0	-0.8027272727272727	-883.0	-0.15714285714285717	154.0	95.27923975408373	39906.0	0.9967850242702828	0.0748897047581114	-0.004334481491226805	0.028148885980381847	1.5228160236429375E12	1.522816023653E12	27.302700098898736	26004.0	2082.03125	2688.0	3859.340659340659	2634.0	0.0	0.0	
0.16359771599193673	0.9350219044863642	-0.05329796705912634	0.3505614993663948	1.6658837345860245	-103.0	-0.4486200822078685	-55.0	-0.46770405167351753	138.0	-0.03614457831325302	1234.0	9.795180722891567	2050.0	0.9036144578313253	1972.0	0.43	-473.0	-0.8163636363636364	-898.0	-0.15714285714285717	154.0	95.26434686012668	39901.0	0.9966563384239604	0.07639845974127954	-0.004354852620159219	0.028643562752573657	1.52281602365075E12	1.522816023659E12	27.302700098898736	26004.0	2089.84375	2944.0	3843.223443223443	2623.0	0.0	0.0	
0.1668221958932004	0.9353555319568476	-0.052640142439679065	0.3497699876227836	2.260406164482212	-82.0	-0.7607662393777905	-96.0	-0.2146046377646549	122.0	-0.024096385542168676	1236.0	9.771084337349398	2049.0	0.783132530120482	1982.0	0.43636363636363634	-480.0	-0.8118181818181818	-893.0	-0.15816326530612246	155.0	95.27626117372786	39905.0	0.9965233108007934	0.07792859494186206	-0.004385682446632416	0.02914088040004612	1.5228160236585625E12	1.522816023666E12	27.302700098898736	26004.0	2097.65625	3200.0	3850.5494505494503	2628.0	0.0	0.0	
0.1700624248119596	0.9356648051483347	-0.05207948194378008	0.3490259302218534	2.4170200735086236	-84.0	-0.7161436245405712	-109.0	0.06417868249929327	104.0	0.03614457831325302	1234.0	9.795180722891567	2044.0	0.5542168674698795	2001.0	0.4381818181818182	-482.0	-0.8072727272727273	-888.0	-0.16020408163265307	157.0	95.27626117372786	39905.0	0.996387024156	0.07946487271071997	-0.004423046993679143	0.02964234730772333	1.522816023666375E12	1.522816023678E12	27.302700098898736	26004.0	2105.46875	3456.0	3854.945054945055	2631.0	0.0	0.0	
0.17330923680607366	0.9359345310349099	-0.051657640426343694	0.34836481137170994	2.464677307425399	-84.0	-0.7031228313671063	-115.0	0.23095072866065228	93.0	0.10843373493975904	1234.0	9.795180722891567	2038.0	0.3614457831325301	2017.0	0.4318181818181818	-475.0	-0.8154545454545454	-897.0	-0.16020408163265307	157.0	95.28221833522181	39907.0	0.9962478373594349	0.0810015869627886	-0.004470773023685851	0.030149654305305775	1.5228160236741875E12	1.522816023679E12	27.302700098898736	26004.0	2113.28125	3712.0	3824.175824175824	2610.0	0.0	0.0	
0.1765438140460044	0.9361572586884663	-0.051469723744755606	0.34779369537491295	2.2527262813522353	-81.0	-0.7363685932388223	-104.0	0.287895310796074	89.0	0.2530120481927711	1234.0	9.795180722891567	2026.0	0.28915662650602414	2023.0	0.43	-473.0	-0.8163636363636364	-898.0	-0.15510204081632656	152.0	95.27626117372786	39905.0	0.9961065643152304	0.08252911214951751	-0.0045374327484108985	0.030660559029049968	1.522816023682E12	1.522816023682E12	27.302700098898736	26004.0	2121.09375	3968.0	3844.688644688644	2624.0	0.0	0.0	
0.17978012164635956	0.9363895697855719	-0.05141720923563323	0.3471755236061695	2.3506093477969734	-86.0	-0.6471139681264231	-113.0	0.14543993571715527	98.0	0.3734939759036145	1237.0	9.759036144578314	2016.0	0.22891566265060243	2028.0	0.4318181818181818	-475.0	-0.8172727272727273	-899.0	-0.15510204081632656	152.0	95.27626117372786	39905.0	0.9959626081668346	0.08405880625912153	-0.0046156742545867295	0.031165618475868823	1.5228160236898125E12	1.522816023701E12	27.302700098898736	26004.0	2128.90625	4224.0	3852.014652014652	2629.0	0.0	0.0	
0.18303552743662008	0.9366334887301357	-0.0514021361419832	0.34651915991653753	2.6612266385891026	-108.0	-0.3000789681495129	-136.0	0.2192682284811794	93.0	0.5060240963855422	1234.0	9.795180722891567	2005.0	0.012048192771084338	2046.0	0.4390909090909091	-483.0	-0.81	-891.0	-0.15714285714285717	154.0	95.27030401536283	39903.0	0.9958151715218649	0.08559899637025131	-0.004697644615511404	0.031668408901472024	1.522816023697625E12	1.522816023709E12	27.302700098898736	26004.0	2136.71875	4480.0	3857.8754578754574	2633.0	0.0	0.0	
0.18625546753641645	0.9368877908686429	-0.05110734711226953	0.3458746975313672	2.2344417130288523	-136.0	0.13248803208694535	-111.0	0.0018113598136889034	107.0	0.4096385542168675	1235.0	9.783132530120483	2013.0	-0.10843373493975904	2056.0	0.43363636363636365	-477.0	-0.8190909090909091	-901.0	-0.15816326530612246	155.0	95.27030401536283	39903.0	0.9956667457383225	0.08712417449420405	-0.004752634703049	0.03216398782709492	1.5228160237054375E12	1.522816023717E12	27.302700098898736	26004.0	2144.53125	4736.0	3859.340659340659	2634.0	0.0	0.0	
0.18945492501470645	0.9371492631437465	-0.05070021546654592	0.3452256461225469	1.9987277353689565	-138.0	0.16081424936386765	-98.0	-0.15089058524173038	117.0	0.3373493975903615	1234.0	9.795180722891567	2019.0	-0.12048192771084337	2057.0	0.43	-473.0	-0.8154545454545454	-897.0	-0.15510204081632656	152.0	95.27030401536283	39903.0	0.995516707918943	0.08864106574454989	-0.004795523305814735	0.03265346343228098	1.52281602371325E12	1.522816023723E12	27.302700098898736	26004.0	2152.34375	4992.0	3843.223443223443	2623.0	0.0	0.0	
0.1926426989988877	0.9374278725367411	-0.04991459391939925	0.34458310623870353	1.874358653485171	-158.0	0.4635214616443499	-92.0	-0.1331497935177074	116.0	0.13253012048192772	1235.0	9.783132530120483	2036.0	-0.08433734939759037	2054.0	0.43363636363636365	-477.0	-0.8172727272727273	-899.0	-0.15816326530612246	155.0	95.27626117372786	39905.0	0.9953646842736715	0.09015476035697627	-0.004800410127492611	0.03313941080282444	1.5228160237210625E12	1.522816023758E12	27.302700098898736	26004.0	2160.15625	5248.0	3852.014652014652	2629.0	0.0	0.0	
0.19582460416937741	0.9377606367099959	-0.04910130870119529	0.3437936150092217	1.9357301157350408	-136.0	0.12016744644176316	-98.0	-0.48214725437084477	139.0	0.03614457831325302	1233.0	9.807228915662652	2044.0	-0.10843373493975904	2056.0	0.43727272727272726	-481.0	-0.8036363636363636	-884.0	-0.15510204081632656	152.0	95.27626117372786	39905.0	0.9952104187890612	0.09167166547823057	-0.004799944217738913	0.03360786541355262	1.522816023728875E12	1.52281602376E12	27.302700098898736	26004.0	2167.96875	5504.0	3850.5494505494503	2628.0	0.0	0.0	
0.1990129986370639	0.9380147760851668	-0.048246143825297565	0.34322090474199624	1.859202714164546	-137.0	0.13352720222949233	-95.0	0.09039137283412077	102.0	-0.03614457831325302	1233.0	9.807228915662652	2050.0	-0.10843373493975904	2056.0	0.43	-473.0	-0.8163636363636364	-898.0	-0.15714285714285717	154.0	95.27626117372786	39905.0	0.9950533119720657	0.0931846102724508	-0.004792886236048767	0.03409637786221504	1.5228160237366875E12	1.522816023762E12	27.302700098898736	26004.0	2175.78125	5760.0	3857.8754578754574	2633.0	0.0	0.0	
0.20218032510020661	0.9382500900617221	-0.04733600428973799	0.3427040577481737	1.5706106870229006	-146.0	0.26884541984732824	-78.0	0.0737118320610687	103.0	-0.04819277108433735	1236.0	9.771084337349398	2051.0	-0.024096385542168676	2049.0	0.43454545454545457	-478.0	-0.8190909090909091	-901.0	-0.15306122448979592	150.0	95.26732543735363	39902.0	0.9948947393890326	0.09468639144367348	-0.004777058354732146	0.03458503324965755	1.5228160237445E12	1.522816023763E12	27.302700098898736	26004.0	2183.59375	6016.0	3844.688644688644	2624.0	0.0	0.0	
0.205360075551076	0.9384650116975822	-0.04650363599880912	0.3422292121639307	1.6991192014092773	-135.0	0.0967704051673516	-88.0	0.3015854374633001	88.0	-0.060240963855421686	1232.0	9.819277108433736	2052.0	0.060240963855421686	2042.0	0.43	-473.0	-0.8145454545454546	-896.0	-0.15612244897959185	153.0	95.28221833522181	39907.0	0.9947330349128912	0.09619238560618733	-0.004766608909580455	0.03507839283494017	1.5228160237523125E12	1.522816023764E12	27.302700098898736	26004.0	2191.40625	6272.0	3859.340659340659	2634.0	0.0	0.0	
0.20854494308840632	0.9386633703492031	-0.04586372844435131	0.34177126207141223	1.7497108489474904	-110.0	-0.28637520240573666	-93.0	0.37335183900069413	83.0	-0.012048192771084338	1234.0	9.795180722891567	2048.0	0.07228915662650603	2041.0	0.43454545454545457	-478.0	-0.8190909090909091	-901.0	-0.15408163265306124	151.0	95.28221833522181	39907.0	0.9945685497481869	0.0976994810941008	-0.004773662861039199	0.03557279000333291	1.522816023760125E12	1.522816023779E12	27.302700098898736	26004.0	2199.21875	6528.0	3852.014652014652	2629.0	0.0	0.0	
0.21175348132732946	0.9388469468114753	-0.04533811030791188	0.3413368808325099	2.0289392731001477	-104.0	-0.373703999088527	-113.0	0.6578557593710836	64.0	0.060240963855421686	1234.0	9.795180722891567	2042.0	0.03614457831325302	2044.0	0.4390909090909091	-483.0	-0.8045454545454546	-885.0	-0.15306122448979592	150.0	95.27626117372786	39905.0	0.9944002918331549	0.0992164445204359	-0.0047912879956669	0.03607215405547658	1.5228160237679375E12	1.522816023782E12	27.302700098898736	26004.0	2207.03125	6784.0	3857.8754578754574	2633.0	0.0	0.0	
0.21494080229136323	0.9390375112997859	-0.04474707302968937	0.3408903809543324	1.7853614728334077	-115.0	-0.2002694207453975	-99.0	0.5260440053884151	72.0	0.04819277108433735	1236.0	9.771084337349398	2043.0	0.14457831325301207	2035.0	0.43727272727272726	-481.0	-0.7927272727272727	-872.0	-0.15204081632653063	149.0	95.27626117372786	39905.0	0.9942306126281546	0.1007245835151599	-0.004799734025746511	0.0365651438124367	1.52281602377575E12	1.522816023783E12	27.302700098898736	26004.0	2214.84375	7040.0	3844.688644688644	2624.0	0.0	0.0	
0.2181447605454773	0.9391546726729022	-0.04428118692415084	0.3406283565430796	1.866356897886934	-107.0	-0.3195043699524284	-106.0	1.0375041486890142	38.0	0.08433734939759037	1237.0	9.759036144578314	2040.0	0.16867469879518074	2033.0	0.43272727272727274	-476.0	-0.8190909090909091	-901.0	-0.15306122448979592	150.0	95.27626117372786	39905.0	0.9940575028207495	0.10223284687196459	-0.0048202835314032	0.03707952228529905	1.5228160237835625E12	1.522816023793E12	27.302700098898736	26004.0	2222.65625	7296.0	3850.5494505494503	2628.0	0.0	0.0	
0.22136798886796444	0.939261814266264	-0.04396752256968701	0.3403734731442821	2.0839694656488548	-98.0	-0.45234460196292264	-122.0	1.2974918211559434	20.0	0.18072289156626506	1235.0	9.783132530120483	2032.0	0.07228915662650603	2041.0	0.4390909090909091	-483.0	-0.8081818181818182	-889.0	-0.15408163265306124	151.0	95.27626117372786	39905.0	0.9938807777054383	0.1037491087905763	-0.004856570567491895	0.03759701923180888	1.522816023791375E12	1.522816023805E12	27.302700098898736	26004.0	2230.46875	7552.0	3849.0842490842488	2627.0	0.0	0.0	
0.22459361318210727	0.9393751931478048	-0.04384818903533044	0.34007584862327944	2.176755187614235	-91.0	-0.5528437802386841	-130.0	1.1570798838834533	28.0	0.3132530120481928	1236.0	9.771084337349398	2021.0	-0.0963855421686747	2055.0	0.43363636363636365	-477.0	-0.81	-891.0	-0.15408163265306124	151.0	95.27030401536283	39903.0	0.9937013369361198	0.10526726169835274	-0.0049136690258060785	0.038109217291927594	1.5228160237991875E12	1.522816023807E12	27.302700098898736	26004.0	2238.28125	7808.0	3857.8754578754574	2633.0	0.0	0.0	
0.22781221590450387	0.9395046746647076	-0.0439071619846143	0.3397103581134819	2.161488012041716	-83.0	-0.6749811848188367	-129.0	0.928072250295667	43.0	0.44578313253012053	1235.0	9.783132530120483	2010.0	-0.27710843373493976	2070.0	0.4354545454545454	-479.0	-0.8109090909090909	-892.0	-0.15408163265306124	151.0	95.27030401536283	39903.0	0.9935197104311753	0.10678405744998343	-0.004990485980821814	0.03861146343959451	1.522816023807E12	1.522816023826E12	27.302700098898736	26004.0	2246.09375	8064.0	3846.1538461538457	2625.0	0.0	0.0	
0.23101690363314292	0.9396089453168547	-0.04398266031102901	0.3394120732568518	1.9477475540264486	-97.0	-0.46124072680356953	-115.0	1.0044081281582624	38.0	0.5060240963855422	1236.0	9.771084337349398	2005.0	-0.42168674698795183	2082.0	0.42818181818181816	-471.0	-0.8163636363636364	-898.0	-0.15306122448979592	150.0	95.27626117372786	39905.0	0.9933363127467492	0.10829159116368625	-0.005069079314785665	0.0391178411575844	1.5228160238148125E12	1.522816023836E12	27.302700098898736	26004.0	2253.90625	8320.0	3856.4102564102564	2632.0	0.0	0.0	
0.23420894875787854	0.9397447119648474	-0.04406010509026951	0.3390259333348302	1.871411676163853	-109.0	-0.27803461993334055	-110.0	0.7754004945704762	53.0	0.5783132530120483	1235.0	9.783132530120483	1999.0	-0.5421686746987953	2092.0	0.4381818181818182	-482.0	-0.8090909090909091	-890.0	-0.15612244897959185	153.0	95.27030401536283	39903.0	0.9931511032479059	0.10979695913916201	-0.0051478507904011124	0.039610775219635436	1.522816023822625E12	1.522816023842E12	27.302700098898736	26004.0	2261.71875	8576.0	3852.014652014652	2629.0	0.0	0.0	
0.2373509128341637	0.9398726088201839	-0.044116964549551885	0.3386638047215475	1.2149231265455325	-121.0	-0.09482851306311156	-67.0	0.5158585098376518	70.0	0.6144578313253012	1234.0	9.795180722891567	1996.0	-0.6144578313253012	2098.0	0.4354545454545454	-479.0	-0.81	-891.0	-0.1510204081632653	148.0	95.27030401536283	39903.0	0.9929663289440601	0.11127817654781628	-0.005223319973183754	0.04009680705501824	1.5228160238304375E12	1.522816023847E12	27.302700098898736	26004.0	2269.53125	8832.0	3852.014652014652	2629.0	0.0	0.0	
0.24048274866128005	0.9399970854844952	-0.04426800880502742	0.33829842251643144	1.0622513708203418	-101.0	-0.4001720245134932	-57.0	0.5463928609826899	68.0	0.6144578313253012	1235.0	9.783132530120483	1996.0	-0.5542168674698795	2093.0	0.4381818181818182	-482.0	-0.8181818181818182	-900.0	-0.15714285714285717	154.0	95.27328259415424	39904.0	0.9927797114789495	0.11275438217855771	-0.005310029211966264	0.04057951903453011	1.52281602383825E12	1.522816023854E12	27.302700098898736	26004.0	2277.34375	9088.0	3843.223443223443	2623.0	0.0	0.0	
0.24359277097389254	0.9401270290160405	-0.0443646589895343	0.3379244684041254	0.8637780883775936	-113.0	-0.21696591764326423	-44.0	0.24104934953230828	88.0	0.6265060240963856	1235.0	9.783132530120483	1995.0	-0.4819277108433735	2087.0	0.4290909090909091	-472.0	-0.8172727272727273	-899.0	-0.15000000000000002	147.0	95.26434686012668	39901.0	0.9925919848010337	0.1142211848382038	-0.005390105547790837	0.04105629555969378	1.5228160238460625E12	1.522816023868E12	27.302700098898736	26004.0	2285.15625	9344.0	3853.4798534798533	2630.0	0.0	0.0	
0.24669031386620932	0.9403059026039058	-0.04434704672617878	0.3374287316973929	0.8179765616600364	-119.0	-0.12536286420814974	-41.0	-0.0642941619180734	108.0	0.5662650602409639	1234.0	9.795180722891567	2000.0	-0.49397590361445787	2088.0	0.4390909090909091	-483.0	-0.8090909090909091	-890.0	-0.15510204081632656	152.0	95.26434686012668	39901.0	0.9924026256842098	0.11568831007576393	-0.005456133879831343	0.04151474497073692	1.522816023853875E12	1.522816023869E12	27.302700098898736	26004.0	2292.96875	9600.0	3838.8278388278386	2620.0	0.0	0.0	
0.24978441945375077	0.9404568009809966	-0.04435012561997353	0.33700752491020836	0.7263735082249219	-117.0	-0.1558972153531879	-35.0	0.10364476937963653	97.0	0.5783132530120483	1235.0	9.783132530120483	1999.0	-0.5060240963855422	2089.0	0.4381818181818182	-482.0	-0.8172727272727273	-899.0	-0.15204081632653063	149.0	95.27626117372786	39905.0	0.9922111001888215	0.1171506190850515	-0.005524596842151699	0.041980280368401096	1.5228160238616875E12	1.522816023876E12	27.302700098898736	26004.0	2300.78125	9856.0	3818.3150183150183	2606.0	0.0	0.0	
0.252854458482648	0.9406107841729185	-0.044423619630734004	0.33656781592500856	0.45896946564885494	-113.0	-0.1799618320610686	-28.0	-0.12938931297709916	108.0	0.6385542168674699	1237.0	9.759036144578314	1994.0	-0.5060240963855422	2089.0	0.43363636363636365	-477.0	-0.8190909090909091	-901.0	-0.15204081632653063	149.0	95.27923975408373	39906.0	0.992018717319726	0.11860227168484298	-0.00560140527125814	0.042438071321722975	1.5228160238695E12	1.522816023914E12	27.302700098898736	26004.0	2308.59375	10112.0	3843.223443223443	2623.0	0.0	0.0	
0.2558982302839537	0.9407579485949307	-0.04456676977754094	0.3361373010944013	0.11742531335406593	-111.0	-0.20827443219300723	-6.0	-0.24992931863160864	116.0	0.6987951807228916	1236.0	9.771084337349398	1989.0	-0.5542168674698795	2093.0	0.43	-473.0	-0.82	-902.0	-0.15204081632653063	149.0	95.27923975408373	39906.0	0.9918256729108538	0.12004098907638985	-0.005686732843475867	0.04289121781974346	1.5228160238773125E12	1.522816023914E12	27.302700098898736	26004.0	2316.40625	10368.0	3852.014652014652	2629.0	0.0	0.0	
0.25892463368308377	0.9409055935575349	-0.044623398756271	0.33571627350426	-0.11301433625023223	-127.0	0.038540309067212904	9.0	-0.24688140011171084	116.0	0.6987951807228916	1236.0	9.771084337349398	1989.0	-0.5421686746987953	2092.0	0.4390909090909091	-483.0	-0.8127272727272727	-894.0	-0.1510204081632653	148.0	95.27923975408373	39906.0	0.991631452474833	0.12147183212294427	-0.005760924411111493	0.04334129916462897	1.522816023885125E12	1.522816023917E12	27.302700098898736	26004.0	2324.21875	10624.0	3853.4798534798533	2630.0	0.0	0.0	
0.26191176502189817	0.9410758254073094	-0.04450088175829412	0.3352550705905621	-0.5391336337717278	-149.0	0.37395383058953363	37.0	-0.6408534902970662	142.0	0.6144578313253012	1235.0	9.783132530120483	1996.0	-0.44578313253012053	2084.0	0.43636363636363634	-480.0	-0.8127272727272727	-894.0	-0.15000000000000002	147.0	95.27923975408373	39906.0	0.9914375257232504	0.12288746925422457	-0.005811009688290923	0.04377824407686735	1.5228160238929375E12	1.522816023919E12	27.302700098898736	26004.0	2332.03125	10880.0	3852.014652014652	2629.0	0.0	0.0	
0.2649017118645193	0.9412314721114963	-0.04429084293727142	0.33484569153378946	-0.5479825517993453	-155.0	0.4611050527081061	38.0	-0.3889494729189386	126.0	0.5421686746987953	1234.0	9.795180722891567	2002.0	-0.39759036144578314	2080.0	0.43727272727272726	-481.0	-0.8145454545454546	-896.0	-0.15204081632653063	149.0	95.27923975408373	39906.0	0.9912412014220491	0.12430272367009873	-0.005849222613005897	0.04422103669512367	1.52281602390075E12	1.52281602392E12	27.302700098898736	26004.0	2339.84375	11136.0	3846.1538461538457	2625.0	0.0	0.0	
0.26787844654288867	0.9414041863159434	-0.044026603990823816	0.3343947011061263	-0.6484059272563985	-142.0	0.25720700493938026	45.0	-0.6133812303547372	141.0	0.43373493975903615	1237.0	9.759036144578314	2011.0	-0.3132530120481928	2073.0	0.43363636363636365	-477.0	-0.8181818181818182	-900.0	-0.1510204081632653	148.0	95.27923975408373	39906.0	0.9910435439431228	0.12571427757533538	-0.005879273531235686	0.04465477091098094	1.5228160239085625E12	1.522816023921E12	27.302700098898736	26004.0	2347.65625	11392.0	3854.945054945055	2631.0	0.0	0.0	
0.27085588456354964	0.9416046270608034	-0.04357349387980172	0.3338893183808298	-0.5492632700159771	-159.0	0.5137582105450028	39.0	-0.6978519439020059	147.0	0.3253012048192771	1235.0	9.783132530120483	2020.0	-0.3132530120481928	2073.0	0.4390909090909091	-483.0	-0.8036363636363636	-884.0	-0.1510204081632653	148.0	95.26732543735363	39902.0	0.9908436435873523	0.1271301340873916	-0.005883046833453614	0.045079848373941425	1.522816023916375E12	1.522816023935E12	27.302700098898736	26004.0	2355.46875	11648.0	3850.5494505494503	2628.0	0.0	0.0	
0.2738011018672765	0.9418150788632595	-0.04307113649924151	0.33336051719789933	-0.9246292884092301	-154.0	0.43151706589453354	64.0	-0.9493726419233133	164.0	0.22891566265060243	1235.0	9.783132530120483	2028.0	-0.20481927710843376	2064.0	0.43636363636363634	-480.0	-0.8181818181818182	-900.0	-0.15612244897959185	153.0	95.26732543735363	39902.0	0.9906437460035331	0.12853263558062772	-0.0058780612202368986	0.0454948182881962	1.5228160239241875E12	1.522816023937E12	27.302700098898736	26004.0	2363.28125	11904.0	3854.945054945055	2631.0	0.0	0.0	
0.2767369817839446	0.9420145657696829	-0.04237181885067843	0.33288614697075475	-1.08206106870229	-162.0	0.5487508674531574	75.0	-0.7095766828591255	149.0	0.04819277108433735	1234.0	9.795180722891567	2043.0	-0.0963855421686747	2055.0	0.4318181818181818	-475.0	-0.7981818181818182	-878.0	-0.15204081632653063	149.0	95.27923975408373	39906.0	0.9904423440850865	0.12992960401625295	-0.005844234096549073	0.04591411516346038	1.522816023932E12	1.522816023937E12	27.302700098898736	26004.0	2371.09375	12160.0	3844.688644688644	2624.0	0.0	0.0	
0.2796751279386103	0.9421981334381463	-0.0416033037937288	0.3324632949050316	-1.0699030791663096	-158.0	0.4815164250793378	75.0	-0.5031306286988593	136.0	-0.07228915662650603	1234.0	9.795180722891567	2053.0	-0.024096385542168676	2049.0	0.4309090909090909	-474.0	-0.8154545454545454	-897.0	-0.15510204081632656	152.0	95.27328259415424	39904.0	0.9902386499785368	0.13132571090483636	-0.005798762757854672	0.04633948742165896	1.5228160239398125E12	1.522816023954E12	27.302700098898736	26004.0	2378.90625	12416.0	3857.8754578754574	2633.0	0.0	0.0	
0.2826220332369594	0.942366322342667	-0.040738665841559316	0.3320934742204448	-0.9816793893129768	-167.0	0.6135708227311282	70.0	-0.19219677692960113	116.0	-0.14457831325301207	1232.0	9.819277108433736	2059.0	0.08433734939759037	2040.0	0.43636363636363634	-480.0	-0.8081818181818182	-889.0	-0.15408163265306124	151.0	95.27328259415424	39904.0	0.9900322019487847	0.1327239885801226	-0.005737681930826083	0.04677243810071152	1.522816023947625E12	1.522816023955E12	27.302700098898736	26004.0	2386.71875	12672.0	3852.014652014652	2629.0	0.0	0.0	
0.2855726343484647	0.9425255823220513	-0.039973251756012615	0.3317343301687734	-0.9403573525710929	-151.0	0.3625534770572938	68.0	-0.11374884657327419	111.0	-0.12048192771084337	1235.0	9.783132530120483	2057.0	0.1566265060240964	2034.0	0.43727272727272726	-481.0	-0.8136363636363636	-895.0	-0.15612244897959185	153.0	95.27328259415424	39904.0	0.9898233415390074	0.13412292219009564	-0.005688258690812779	0.04720633432929678	1.5228160239554375E12	1.522816023964E12	27.302700098898736	26004.0	2394.53125	12928.0	3852.014652014652	2629.0	0.0	0.0	
0.2885453005760262	0.9426536060445324	-0.03936038514525816	0.33144371934380584	-0.7163956189844006	-132.0	0.06853634251576503	54.0	0.20809824095585805	90.0	-0.04819277108433735	1235.0	9.783132530120483	2051.0	0.18072289156626506	2032.0	0.4309090909090909	-474.0	-0.8127272727272727	-894.0	-0.15204081632653063	149.0	95.26732543735363	39902.0	0.9896107406473573	0.1355278302730036	-0.005658947850239904	0.0476525500483348	1.52281602396325E12	1.522816023971E12	27.302700098898736	26004.0	2402.34375	13184.0	3849.0842490842488	2627.0	0.0	0.0	
0.2915290986354487	0.9427976974137412	-0.03867641499804624	0.33111423508246124	-0.4796848066978573	-144.0	0.2510054994664696	39.0	0.16005909874415147	93.0	-0.08433734939759037	1236.0	9.771084337349398	2054.0	0.0963855421686747	2039.0	0.43272727272727274	-476.0	-0.8145454545454546	-896.0	-0.15408163265306124	151.0	95.26732543735363	39902.0	0.9893951450938763	0.1369403411728306	-0.005617707255441204	0.04809398288069282	1.5228160239710625E12	1.522816023984E12	27.302700098898736	26004.0	2410.15625	13440.0	3857.8754578754574	2633.0	0.0	0.0	
0.2945058674663209	0.9429253486166481	-0.03794973028485286	0.3308347093451348	-0.6425207081370802	-140.0	0.1872665259054735	50.0	0.46369985382491474	73.0	-0.1566265060240964	1233.0	9.807228915662652	2060.0	0.07228915662650603	2041.0	0.43636363636363634	-480.0	-0.8036363636363636	-884.0	-0.15204081632653063	149.0	95.28519691714213	39908.0	0.9891778630570484	0.13834728232209384	-0.005568035749031888	0.04854051596223162	1.522816023978875E12	1.52281602399E12	27.302700098898736	26004.0	2417.96875	13696.0	3830.03663003663	2614.0	0.0	0.0	
0.2974789890191563	0.9430259510716288	-0.03722004137269735	0.3306307973036782	-0.7578947368421051	-139.0	0.17002812374447565	58.0	0.7336279630373642	55.0	-0.18072289156626506	1233.0	9.807228915662652	2062.0	0.12048192771084337	2037.0	0.43727272727272726	-481.0	-0.8081818181818182	-889.0	-0.1489795918367347	146.0	95.27626117372786	39905.0	0.9889586599563516	0.13974858366983867	-0.0055156998172282215	0.0489967275962154	1.5228160239866875E12	1.522816024E12	27.302700098898736	26004.0	2425.78125	13952.0	3850.5494505494503	2628.0	0.0	0.0	
0.30049964238230575	0.943110501993339	-0.03663150440860749	0.33045531303737025	-0.13931297709923662	-128.0	3.1806615776095885E-4	18.0	1.0618638676844785	33.0	-0.0963855421686747	1234.0	9.795180722891567	2055.0	0.13253012048192772	2036.0	0.43	-473.0	-0.8172727272727273	-899.0	-0.15306122448979592	150.0	95.27626117372786	39905.0	0.9887337142692608	0.14116963108774871	-0.005483192004142144	0.04946425104361902	1.5228160239945E12	1.522816024E12	27.302700098898736	26004.0	2433.59375	14208.0	3844.688644688644	2624.0	0.0	0.0	
0.3035427333629789	0.9431635432662709	-0.03624006332581908	0.3303470727334394	0.045329346029746975	-127.0	-0.014952388447312398	6.0	1.4783977335326985	5.0	0.10843373493975904	1234.0	9.795180722891567	2038.0	-0.04819277108433735	2051.0	0.4318181818181818	-475.0	-0.8163636363636364	-898.0	-0.15306122448979592	150.0	95.27328259415424	39904.0	0.9885048170928302	0.14259630498036874	-0.00547911246083591	0.049944966882133485	1.5228160240023125E12	1.522816024006E12	27.302700098898736	26004.0	2441.40625	14464.0	3854.945054945055	2631.0	0.0	0.0	
0.30654831387248466	0.943232532885836	-0.03590971860856133	0.3301861308644542	-0.41314846549306716	-131.0	0.04626888923508324	36.0	1.1732357064963388	24.0	0.21686746987951808	1233.0	9.807228915662652	2029.0	-0.22891566265060243	2066.0	0.4409090909090909	-485.0	-0.8027272727272727	-883.0	-0.15000000000000002	147.0	95.27626117372786	39905.0	0.9882764950527771	0.14400776037929539	-0.005482506139655734	0.050411074211591175	1.522816024010125E12	1.522816024017E12	27.302700098898736	26004.0	2449.21875	14720.0	3843.223443223443	2623.0	0.0	0.0	
0.3095436196766652	0.9433043767040322	-0.0356275607629371	0.33001140859840516	-0.5005783021050195	-132.0	0.061068702290076333	42.0	1.023980260621482	33.0	0.26506024096385544	1234.0	9.795180722891567	2025.0	-0.27710843373493976	2070.0	0.43636363636363634	-480.0	-0.8109090909090909	-892.0	-0.1510204081632653	148.0	95.27626117372786	39905.0	0.9880467330704991	0.1454147473208056	-0.005492153830666097	0.050872790140119244	1.5228160240179375E12	1.522816024023E12	27.302700098898736	26004.0	2457.03125	14976.0	3853.4798534798533	2630.0	0.0	0.0	
0.31253024963839443	0.9433641573882988	-0.03539998669367556	0.3298649837390357	-0.64824427480916	-141.0	0.19786259541984744	52.0	1.1358778625954198	25.0	0.3493975903614458	1236.0	9.771084337349398	2018.0	-0.3253012048192771	2074.0	0.4354545454545454	-479.0	-0.8109090909090909	-892.0	-0.15408163265306124	151.0	95.27626117372786	39905.0	0.9878154300548553	0.1468157009118908	-0.0055092975687058374	0.05133686542428382	1.52281602402575E12	1.522816024051E12	27.302700098898736	26004.0	2464.84375	15232.0	3847.6190476190473	2626.0	0.0	0.0	
0.31551925941177933	0.9434154289160768	-0.03531644819090758	0.3297272766549256	-0.6418260146625347	-138.0	0.15010203310407372	52.0	1.2773033028493688	15.0	0.5060240963855422	1236.0	9.771084337349398	2005.0	-0.39759036144578314	2080.0	0.4354545454545454	-479.0	-0.8	-880.0	-0.15714285714285717	154.0	95.27626117372786	39905.0	0.9875817372807434	0.1482162752779813	-0.005548427815006369	0.05180215131683305	1.5228160240335625E12	1.522816024052E12	27.302700098898736	26004.0	2472.65625	15488.0	3854.945054945055	2631.0	0.0	0.0	
0.31847275117579354	0.9434726716819747	-0.03521290198433231	0.3295745277219199	-1.0172129920670563	-153.0	0.37763807813201633	77.0	0.8525669809908694	42.0	0.5542168674698795	1234.0	9.795180722891567	2001.0	-0.42168674698795183	2082.0	0.43636363636363634	-480.0	-0.8172727272727273	-899.0	-0.15204081632653063	149.0	95.27626117372786	39905.0	0.9873486547985866	0.1496010737371929	-0.0055835087802461976	0.05225875078684534	1.522816024041375E12	1.522816024064E12	27.302700098898736	26004.0	2480.46875	15744.0	3841.7582417582416	2622.0	0.0	0.0	
0.3214000087702805	0.943543969177724	-0.03503309409060463	0.329389527075143	-1.2974134736530052	-167.0	0.5877121470392056	96.0	0.6305491736455943	56.0	0.5180722891566265	1235.0	9.783132530120483	2004.0	-0.28915662650602414	2071.0	0.44	-484.0	-0.8181818181818182	-900.0	-0.15612244897959185	153.0	95.27923975408373	39906.0	0.9871155180677672	0.15097574487738685	-0.005605618443301566	0.05270536491088832	1.5228160240491875E12	1.522816024065E12	27.302700098898736	26004.0	2488.28125	16000.0	3856.4102564102564	2632.0	0.0	0.0	
0.3243352797893587	0.943630078132214	-0.034760226130332764	0.3291716912548232	-1.1169994128009397	-161.0	0.49045801526717553	85.0	0.5939518496770404	58.0	0.39759036144578314	1235.0	9.783132530120483	2014.0	-0.21686746987951808	2065.0	0.44	-484.0	-0.8081818181818182	-889.0	-0.15204081632653063	149.0	95.27626117372786	39905.0	0.9868796198223593	0.15235642122894472	-0.0056123090785839954	0.05314733178994445	1.522816024057E12	1.522816024072E12	27.302700098898736	26004.0	2496.09375	16256.0	3847.6190476190473	2626.0	0.0	0.0	
0.3272587439268175	0.9436991362584165	-0.034502246460883644	0.3290008133945637	-1.3506361323155214	-148.0	0.2873137041075971	101.0	0.8325699745547075	42.0	0.3373493975903615	1236.0	9.771084337349398	2019.0	-0.18072289156626506	2062.0	0.4381818181818182	-482.0	-0.8163636363636364	-898.0	-0.15510204081632656	152.0	95.27626117372786	39905.0	0.9866425575727107	0.15372874451256496	-0.005620421623277105	0.053594286614785346	1.5228160240648125E12	1.522816024079E12	27.302700098898736	26004.0	2503.90625	16512.0	3856.4102564102564	2632.0	0.0	0.0	
0.3301855107026144	0.9437858099560175	-0.03425306906284919	0.32877815040758157	-1.2157568774305056	-134.0	0.07086273944980542	93.0	0.6720437851073023	52.0	0.30120481927710846	1233.0	9.807228915662652	2022.0	-0.24096385542168675	2067.0	0.43636363636363634	-480.0	-0.8163636363636364	-898.0	-0.15408163265306124	151.0	95.27923975408373	39906.0	0.9864031158203531	0.15510537080513645	-0.005629280417401869	0.05403265909875394	1.522816024072625E12	1.522816024084E12	27.302700098898736	26004.0	2511.71875	16768.0	3846.1538461538457	2625.0	0.0	0.0	
0.3330972911005058	0.9438548112193836	-0.03399220796802464	0.3286070984252719	-1.4944709995006062	-135.0	0.08546764642933591	112.0	0.9253049868017409	35.0	0.27710843373493976	1234.0	9.795180722891567	2024.0	-0.18072289156626506	2062.0	0.44	-484.0	-0.8163636363636364	-898.0	-0.15612244897959185	153.0	95.27626117372786	39905.0	0.9861628039416822	0.15647201068848698	-0.005635219596567537	0.05447640124934492	1.5228160240804375E12	1.522816024102E12	27.302700098898736	26004.0	2519.53125	17024.0	3841.7582417582416	2622.0	0.0	0.0	
0.335988978641386	0.9439380571405959	-0.033703424299846435	0.32839766057646425	-1.694373763076053	-136.0	0.0999434549052871	126.0	0.7335312411648288	47.0	0.2530120481927711	1234.0	9.795180722891567	2026.0	-0.0963855421686747	2055.0	0.44	-484.0	-0.8054545454545454	-886.0	-0.15714285714285717	154.0	95.27626117372786	39905.0	0.9859220816436011	0.1578315492781139	-0.005635394857726434	0.05490986527770799	1.52281602408825E12	1.522816024103E12	27.302700098898736	26004.0	2527.34375	17280.0	3846.1538461538457	2625.0	0.0	0.0	
0.33890141165284693	0.9440129420799045	-0.033403580947974035	0.3282129887214926	-1.3887527137754743	-136.0	0.09902654247496324	107.0	0.8794733524756633	37.0	0.24096385542168675	1235.0	9.783132530120483	2027.0	0.0	2047.0	0.43636363636363634	-480.0	-0.8054545454545454	-886.0	-0.15306122448979592	150.0	95.27328259415424	39904.0	0.9856775490961727	0.15919923709995992	-0.0056332115443329415	0.05535014943294776	1.5228160240960625E12	1.522816024106E12	27.302700098898736	26004.0	2535.15625	17536.0	3837.362637362637	2619.0	0.0	0.0	
0.34179764957287556	0.9440667294271031	-0.033246664705368204	0.328074183188475	-1.6662040249826504	-118.0	-0.17668285912560708	126.0	0.9783483691880636	30.0	0.3373493975903615	1235.0	9.783132530120483	2019.0	0.10843373493975904	2038.0	0.4354545454545454	-479.0	-0.8145454545454546	-896.0	-0.15408163265306124	151.0	95.27030401536283	39903.0	0.9854323035212277	0.16055568085243685	-0.005654198714409041	0.055794968946630975	1.522816024103875E12	1.522816024114E12	27.302700098898736	26004.0	2542.96875	17792.0	3844.688644688644	2624.0	0.0	0.0	
0.3447179206722907	0.9441132602465547	-0.03315950627619188	0.3279490798433978	-1.3153153153153148	-119.0	-0.15982394608348813	104.0	1.1069390000687709	21.0	0.44578313253012053	1235.0	9.783132530120483	2010.0	0.16867469879518074	2033.0	0.43727272727272726	-481.0	-0.8118181818181818	-893.0	-0.15204081632653063	149.0	95.27030401536283	39903.0	0.9851829305911929	0.16192187389866447	-0.005687081857523469	0.05624550759695728	1.5228160241116875E12	1.522816024125E12	27.302700098898736	26004.0	2550.78125	18048.0	3854.945054945055	2631.0	0.0	0.0	
0.3476401901619855	0.9441725495412464	-0.03310068539826579	0.32778429083612226	-1.1967011995637944	-129.0	-0.0057251908396946565	97.0	0.9443838604143944	31.0	0.5301204819277109	1236.0	9.771084337349398	2003.0	0.0963855421686747	2039.0	0.4381818181818182	-482.0	-0.8127272727272727	-894.0	-0.15510204081632656	152.0	95.28519691714213	39908.0	0.984931284449194	0.16329099131045938	-0.00572463553866787	0.056689025552196605	1.5228160241195E12	1.522816024126E12	27.302700098898736	26004.0	2558.59375	18304.0	3846.1538461538457	2625.0	0.0	0.0	
0.3505540603452942	0.9442617885814885	-0.03299224006727087	0.32753806911599387	-1.1403093967439035	-133.0	0.055394176856042705	94.0	0.508545565088158	59.0	0.49397590361445787	1236.0	9.771084337349398	2006.0	0.024096385542168676	2045.0	0.43363636363636365	-477.0	-0.8154545454545454	-897.0	-0.15510204081632656	152.0	95.27923975408373	39906.0	0.9846782679113619	0.16466124873559151	-0.00575321750149632	0.05711639306097972	1.5228160241273125E12	1.522816024135E12	27.302700098898736	26004.0	2566.40625	18560.0	3857.8754578754574	2633.0	0.0	0.0	
0.3534475096136281	0.9443559609429628	-0.032793268978871117	0.32728645028657083	-1.3745814918976835	-139.0	0.1465113164590869	110.0	0.4124815856434983	65.0	0.39759036144578314	1236.0	9.771084337349398	2014.0	0.07228915662650603	2041.0	0.4318181818181818	-475.0	-0.8145454545454546	-896.0	-0.15408163265306124	151.0	95.27923975408373	39906.0	0.9844249563407735	0.16602278792296202	-0.005765230661056421	0.05753869427766364	1.522816024135125E12	1.522816024152E12	27.302700098898736	26004.0	2574.21875	18816.0	3846.1538461538457	2625.0	0.0	0.0	
0.3563341559106573	0.944450703977427	-0.03251817938914172	0.32704041916216564	-1.4694988383670764	-141.0	0.17577165615665447	117.0	0.561566544971789	55.0	0.3132530120481928	1236.0	9.771084337349398	2021.0	0.21686746987951808	2029.0	0.43727272727272726	-481.0	-0.7990909090909091	-879.0	-0.15510204081632656	152.0	95.27626117372786	39905.0	0.9841701871944036	0.16738118732086799	-0.005763065719306837	0.05796005385008	1.5228160241429375E12	1.522816024159E12	27.302700098898736	26004.0	2582.03125	19072.0	3852.014652014652	2629.0	0.0	0.0	
0.3592259787877447	0.9445370575766436	-0.03235925353244047	0.32680670980760906	-1.3804948670702812	-122.0	-0.11581995261911016	112.0	0.5719926296393789	54.0	0.39759036144578314	1236.0	9.771084337349398	2014.0	0.3493975903614458	2018.0	0.4381818181818182	-482.0	-0.8063636363636364	-887.0	-0.15408163265306124	151.0	95.27626117372786	39905.0	0.9839129054514377	0.16874041386017732	-0.005780941879908547	0.05838362722019944	1.52281602415075E12	1.522816024168E12	27.302700098898736	26004.0	2589.84375	19328.0	3843.223443223443	2623.0	0.0	0.0	
0.3621414098483172	0.9446241902936948	-0.032237504076695976	0.3265668116065756	-0.9870163763293529	-133.0	0.05310889280354927	87.0	0.582370979317544	53.0	0.49397590361445787	1234.0	9.795180722891567	2006.0	0.39759036144578314	2014.0	0.43454545454545457	-478.0	-0.8063636363636364	-887.0	-0.15612244897959185	153.0	95.27626117372786	39905.0	0.9836514410353147	0.17011064176842125	-0.005805422477899731	0.05880909093106091	1.5228160241585625E12	1.522816024201E12	27.302700098898736	26004.0	2597.65625	19584.0	3854.945054945055	2631.0	0.0	0.0	
0.36505074557243666	0.9447134748092153	-0.03215777787639428	0.3263163002915255	-0.9939190063397592	-131.0	0.022124466295769033	88.0	0.4094967007374819	64.0	0.5542168674698795	1234.0	9.795180722891567	2001.0	0.4819277108433735	2007.0	0.43272727272727274	-476.0	-0.8072727272727273	-888.0	-0.15408163265306124	151.0	95.27923975408373	39906.0	0.9833884396223256	0.1714783173212638	-0.005837073129658365	0.059230837265014505	1.522816024166375E12	1.522816024206E12	27.302700098898736	26004.0	2605.46875	19840.0	3831.501831501831	2615.0	0.0	0.0	
0.36796707477762836	0.9448260251791056	-0.03203072007056222	0.32600278390837045	-0.7565591121944958	-129.0	-0.008595804734107624	73.0	0.17704791840400327	79.0	0.5060240963855422	1236.0	9.771084337349398	2005.0	0.6144578313253012	1996.0	0.43727272727272726	-481.0	-0.8036363636363636	-884.0	-0.15612244897959185	153.0	95.27923975408373	39906.0	0.9831227175888476	0.17285338985844778	-0.0058599344178248605	0.05964133586516181	1.5228160241741875E12	1.522816024207E12	27.302700098898736	26004.0	2613.28125	20096.0	3818.3150183150183	2606.0	0.0	0.0	
0.37091886338193525	0.944938409117222	-0.03202730087905871	0.3256772251377325	-0.1853689567430027	-114.0	-0.23753180661577614	36.0	0.16030534351145037	80.0	0.6265060240963856	1237.0	9.759036144578314	1995.0	0.6867469879518072	1990.0	0.43454545454545457	-478.0	-0.8127272727272727	-894.0	-0.15612244897959185	153.0	95.27923975408373	39906.0	0.9828516360284072	0.17424485308133622	-0.0059057736275921115	0.06005426353562667	1.522816024182E12	1.522816024209E12	27.302700098898736	26004.0	2621.09375	20352.0	3843.223443223443	2623.0	0.0	0.0	
0.37390424479302997	0.945056475265105	-0.0321054272045504	0.3253267589724388	0.36578133871680035	-111.0	-0.28137026055138464	0.0	0.12844615481673066	82.0	0.746987951807229	1238.0	9.74698795180723	1985.0	0.5421686746987953	2002.0	0.43272727272727274	-476.0	-0.8163636363636364	-898.0	-0.15408163265306124	151.0	95.27923975408373	39906.0	0.982575291833219	0.17565291581052228	-0.005967275024743668	0.06046685600314606	1.5228160241898125E12	1.522816024211E12	27.302700098898736	26004.0	2628.90625	20608.0	3857.8754578754574	2633.0	0.0	0.0	
0.3768850004538491	0.9451957792310299	-0.032142838490028906	0.32491810792514497	0.40858465773995706	-119.0	-0.15692654236015519	-3.0	-0.10161431610561912	97.0	0.7349397590361446	1237.0	9.759036144578314	1986.0	0.3493975903614458	2018.0	0.43272727272727274	-476.0	-0.8181818181818182	-900.0	-0.15714285714285717	154.0	95.27923975408373	39906.0	0.9822971916089976	0.17706276458638426	-0.006021292064304765	0.060866647648604576	1.522816024197625E12	1.522816024212E12	27.302700098898736	26004.0	2636.71875	20864.0	3856.4102564102564	2632.0	0.0	0.0	
0.3798532281994606	0.9453514010491737	-0.03207724240456393	0.3244715381263633	0.29839260224663344	-126.0	-0.04878048780487794	4.0	-0.20765841246198732	104.0	0.6385542168674699	1237.0	9.759036144578314	1994.0	0.28915662650602414	2023.0	0.4381818181818182	-482.0	-0.8072727272727273	-888.0	-0.15714285714285717	154.0	95.27923975408373	39906.0	0.9820180920530025	0.17846989348683237	-0.006055760883138569	0.06125595284954631	1.5228160242054375E12	1.522816024218E12	27.302700098898736	26004.0	2644.53125	21120.0	3852.014652014652	2629.0	0.0	0.0	
0.38282294817729023	0.9455315077618355	-0.031935153126038666	0.32396035841511045	0.4791923171632597	-120.0	-0.1399901502093083	-8.0	-0.5571287860132971	127.0	0.5180722891566265	1237.0	9.759036144578314	2004.0	0.2530120481927711	2026.0	0.43454545454545457	-478.0	-0.8190909090909091	-901.0	-0.15612244897959185	153.0	95.27626117372786	39905.0	0.9817366875658375	0.1798824336026891	-0.006075496178212316	0.061631767089868325	1.52281602421325E12	1.522816024221E12	27.302700098898736	26004.0	2652.34375	21376.0	3846.1538461538457	2625.0	0.0	0.0	
0.3858079266193558	0.9457136305654353	-0.031683325308673405	0.32345308138913076	0.7043664122137407	-127.0	-0.032000000000000056	-23.0	-0.36946564885496164	115.0	0.4096385542168675	1234.0	9.795180722891567	2013.0	0.16867469879518074	2033.0	0.43727272727272726	-481.0	-0.8036363636363636	-884.0	-0.15000000000000002	147.0	95.27328259415424	39904.0	0.9814516559670102	0.1813025699458473	-0.006074003923849905	0.062009125191196154	1.5228160242210625E12	1.522816024234E12	27.302700098898736	26004.0	2660.15625	21632.0	3854.945054945055	2631.0	0.0	0.0	
0.38877369249391575	0.9458847353525356	-0.03141917489167464	0.32297817708969995	0.39343269114261525	-132.0	0.04458984611656351	-3.0	-0.19859445050284763	104.0	0.3734939759036145	1234.0	9.795180722891567	2016.0	0.13253012048192772	2036.0	0.43272727272727274	-476.0	-0.81	-891.0	-0.15714285714285717	154.0	95.27328259415424	39904.0	0.9811662938041379	0.18271179228612755	-0.006069083834479687	0.062388068439830954	1.522816024228875E12	1.522816024236E12	27.302700098898736	26004.0	2667.96875	21888.0	3843.223443223443	2623.0	0.0	0.0	
0.3917276372026823	0.9460739058847759	-0.03111814480489327	0.3224528270426895	0.3598004447917288	-127.0	-0.03209713289655595	-1.0	-0.5023742261224977	124.0	0.3253012048192771	1235.0	9.783132530120483	2020.0	0.18072289156626506	2032.0	0.43727272727272726	-481.0	-0.8063636363636364	-887.0	-0.15510204081632656	152.0	95.27626117372786	39905.0	0.9808799244128593	0.18411914177471048	-0.006056023825897503	0.06275380539367703	1.5228160242366875E12	1.52281602425E12	27.302700098898736	26004.0	2675.78125	22144.0	3813.9194139194137	2603.0	0.0	0.0	
0.3947068069994547	0.9462450330167526	-0.030807442116526286	0.32198018417498975	0.6776001908396946	-149.0	0.3040314885496183	-22.0	-0.19310591603053434	104.0	0.3855421686746988	1234.0	9.795180722891567	2015.0	0.14457831325301207	2035.0	0.44	-484.0	-0.8163636363636364	-898.0	-0.15612244897959185	153.0	95.27923975408373	39906.0	0.980588942360058	0.18553480300856856	-0.006040562967146786	0.0631321993343681	1.5228160242445E12	1.522816024251E12	27.302700098898736	26004.0	2683.59375	22400.0	3843.223443223443	2623.0	0.0	0.0	
0.39768596420356406	0.9464154526885427	-0.030484888927426006	0.3215096615335574	0.6876146517545417	-143.0	0.2100716018699331	-23.0	-0.11527309308243094	99.0	0.3373493975903615	1237.0	9.759036144578314	2019.0	0.060240963855421686	2042.0	0.43636363636363634	-480.0	-0.8109090909090909	-892.0	-0.15408163265306124	151.0	95.27923975408373	39906.0	0.9802957857587178	0.18695040689682313	-0.006021839957279624	0.06350948927789637	1.5228160242523125E12	1.522816024254E12	27.302700098898736	26004.0	2691.40625	22656.0	3854.945054945055	2631.0	0.0	0.0	
0.4006540853982144	0.9465916876808637	-0.0301825299779145	0.32101898962153136	0.5754550792718736	-126.0	-0.05108631826189068	-16.0	-0.1907222548443922	104.0	0.28915662650602414	1234.0	9.795180722891567	2023.0	0.0	2047.0	0.43272727272727274	-476.0	-0.8154545454545454	-897.0	-0.15612244897959185	153.0	95.27626117372786	39905.0	0.9800015520757726	0.18836213205860092	-0.006006016925303225	0.06387951859640226	1.522816024260125E12	1.522816024268E12	27.302700098898736	26004.0	2699.21875	22912.0	3843.223443223443	2623.0	0.0	0.0	
0.40360862692828964	0.9467713003109586	-0.02986904146131486	0.32051824483121455	0.4336577122545304	-135.0	0.08670823378590982	-7.0	-0.26560223763183965	109.0	0.3132530120481928	1236.0	9.771084337349398	2021.0	0.012048192771084338	2046.0	0.43636363636363634	-480.0	-0.8081818181818182	-889.0	-0.15816326530612246	155.0	95.27328259415424	39904.0	0.9797065209612651	0.1897683340588936	-0.005986871630126592	0.06424382882869707	1.5228160242679375E12	1.522816024271E12	27.302700098898736	26004.0	2707.03125	23168.0	3849.0842490842488	2627.0	0.0	0.0	
0.4065678734855571	0.9469450139397171	-0.029622126182822662	0.3200276085201375	0.4914411288457085	-117.0	-0.1887578070784179	-11.0	-0.17198704603284778	103.0	0.3493975903614458	1237.0	9.759036144578314	2018.0	-0.024096385542168676	2049.0	0.4390909090909091	-483.0	-0.8081818181818182	-889.0	-0.15510204081632656	152.0	95.27328259415424	39904.0	0.9794088768667113	0.19117563274010665	-0.005980314202772616	0.06460932752430679	1.52281602427575E12	1.522816024285E12	27.302700098898736	26004.0	2714.84375	23424.0	3849.0842490842488	2627.0	0.0	0.0	
0.40953096717076837	0.947117293529197	-0.02933394224485627	0.3195439752683537	0.5946163117717955	-129.0	-0.004132468576019948	-18.0	-0.18596108592090918	104.0	0.3253012048192771	1236.0	9.771084337349398	2020.0	-0.07228915662650603	2053.0	0.43454545454545457	-478.0	-0.8145454545454546	-896.0	-0.15408163265306124	151.0	95.27923975408373	39906.0	0.9791086974363691	0.1925845085487169	-0.005964691902067923	0.06497528854894905	1.5228160242835625E12	1.522816024289E12	27.302700098898736	26004.0	2722.65625	23680.0	3854.945054945055	2631.0	0.0	0.0	
0.41247922309808815	0.9472785996617121	-0.029043002709640452	0.3190920848541286	0.3611712430215332	-128.0	-0.019368804830807974	-3.0	-0.047168736470320285	95.0	0.30120481927710846	1234.0	9.795180722891567	2022.0	-0.03614457831325302	2050.0	0.43363636363636365	-477.0	-0.8163636363636364	-898.0	-0.15510204081632656	152.0	95.27923975408373	39906.0	0.9788078881512388	0.19398433541524981	-0.00594744521950021	0.06534388725639921	1.522816024291375E12	1.522816024303E12	27.302700098898736	26004.0	2730.46875	23936.0	3844.688644688644	2624.0	0.0	0.0	
0.4154142536940068	0.9474446637760163	-0.028737268380466932	0.3186263932702103	0.2516256714729994	-136.0	0.10291207237772111	4.0	-0.18422391857506398	104.0	0.3253012048192771	1235.0	9.783132530120483	2020.0	0.08433734939759037	2040.0	0.4354545454545454	-479.0	-0.8027272727272727	-883.0	-0.15510204081632656	152.0	95.27923975408373	39906.0	0.9785063155293325	0.19537905697388028	-0.005926109049792789	0.06570613210909329	1.5228160242991875E12	1.522816024304E12	27.302700098898736	26004.0	2738.28125	24192.0	3854.945054945055	2631.0	0.0	0.0	
0.4183626282125901	0.9476153103798478	-0.02845501848794783	0.31814389111935004	0.49405029187247396	-123.0	-0.09631791647956897	-12.0	-0.21340368208352029	106.0	0.3253012048192771	1235.0	9.783132530120483	2020.0	0.04819277108433735	2043.0	0.4381818181818182	-482.0	-0.8045454545454546	-885.0	-0.15204081632653063	149.0	95.27328259415424	39904.0	0.9782012501235653	0.19678097089242186	-0.005908944382268041	0.06606548363266083	1.522816024307E12	1.522816024307E12	27.302700098898736	26004.0	2746.09375	24448.0	3846.1538461538457	2625.0	0.0	0.0	
0.4213201913460971	0.9477809751264048	-0.028231727751582582	0.3176699430802459	0.5973143143700901	-115.0	-0.21775227057446933	-19.0	-0.04390705967571154	95.0	0.3734939759036145	1235.0	9.783132530120483	2016.0	-0.08433734939759037	2054.0	0.4409090909090909	-485.0	-0.8127272727272727	-894.0	-0.15612244897959185	153.0	95.27626117372786	39905.0	0.9778930981793617	0.19818616574937267	-0.005903408089427086	0.06642651587778364	1.5228160243148125E12	1.522816024321E12	27.302700098898736	26004.0	2753.90625	24704.0	3854.945054945055	2631.0	0.0	0.0	
0.42426086392012513	0.9479310944353079	-0.02805667521711738	0.3172372348549805	0.33344396504038026	-118.0	-0.17037282885274904	-2.0	0.032746985285983056	90.0	0.45783132530120485	1235.0	9.783132530120483	2009.0	-0.04819277108433735	2051.0	0.4354545454545454	-479.0	-0.8018181818181818	-882.0	-0.15204081632653063	149.0	95.27626117372786	39905.0	0.9775845859137323	0.19958030714525288	-0.005907138071720925	0.0667920961153666	1.522816024322625E12	1.522816024352E12	27.302700098898736	26004.0	2761.71875	24960.0	3853.4798534798533	2630.0	0.0	0.0	
0.4271706614939932	0.9480699955955243	-0.02788353055445997	0.3168371698133395	-0.06590147729144909	-129.0	-0.0012081937503433241	24.0	-0.043824482398814084	95.0	0.49397590361445787	1236.0	9.771084337349398	2006.0	0.21686746987951808	2029.0	0.43272727272727274	-476.0	-0.8027272727272727	-883.0	-0.15408163265306124	151.0	95.27328259415424	39904.0	0.9772772325472776	0.20095776736148427	-0.005910335811081392	0.06715842770957611	1.5228160243304375E12	1.522816024354E12	27.302700098898736	26004.0	2769.53125	25216.0	3853.4798534798533	2630.0	0.0	0.0	
0.4300915280058329	0.9482198472335756	-0.027687295284636173	0.3164056494314832	0.22464558342420896	-125.0	-0.06226826608505988	5.0	-0.2267175572519083	107.0	0.46987951807228917	1235.0	9.783132530120483	2008.0	0.4819277108433735	2007.0	0.4381818181818182	-482.0	-0.8036363636363636	-884.0	-0.15510204081632656	152.0	95.27328259415424	39904.0	0.9769666295514725	0.2023426609009579	-0.005908251148073475	0.06751847814285551	1.52281602433825E12	1.522816024359E12	27.302700098898736	26004.0	2777.34375	25472.0	3846.1538461538457	2625.0	0.0	0.0	
0.4330463939829091	0.9483906214818904	-0.027465834652992027	0.3159127363877564	0.8490065508093771	-115.0	-0.2144984029018459	-36.0	-0.3777813870391427	117.0	0.42168674698795183	1235.0	9.783132530120483	2012.0	0.5301204819277109	2003.0	0.44	-484.0	-0.7990909090909091	-879.0	-0.15510204081632656	152.0	95.27328259415424	39904.0	0.9766502908161525	0.2037477910171352	-0.00590063103981872	0.06786920993863181	1.5228160243460625E12	1.522816024369E12	27.302700098898736	26004.0	2785.15625	25728.0	3841.7582417582416	2622.0	0.0	0.0	
0.4360003335724083	0.948564474640075	-0.02721128039757158	0.31541240253029146	0.8888291581550369	-116.0	-0.19772067519621567	-39.0	-0.3903881303085689	118.0	0.3734939759036145	1236.0	9.771084337349398	2016.0	0.5421686746987953	2002.0	0.4409090909090909	-485.0	-0.8009090909090909	-881.0	-0.15612244897959185	153.0	95.27626117372786	39905.0	0.9763319204194474	0.20515320615362775	-0.005885189216289593	0.06821662350812872	1.522816024353875E12	1.52281602437E12	27.302700098898736	26004.0	2792.96875	25984.0	3849.0842490842488	2627.0	0.0	0.0	
0.43895565992948116	0.9487399534994506	-0.02692942552963439	0.31490840997741004	0.9742166230715845	-115.0	-0.21160518870442543	-45.0	-0.43345967010089115	121.0	0.3132530120481928	1236.0	9.771084337349398	2021.0	0.5903614457831325	1998.0	0.43363636363636365	-477.0	-0.8063636363636364	-887.0	-0.15714285714285717	154.0	95.27923975408373	39906.0	0.9760112692505554	0.2065596711643599	-0.005863074767251929	0.06856186183779485	1.5228160243616875E12	1.522816024373E12	27.302700098898736	26004.0	2800.78125	26240.0	3853.4798534798533	2630.0	0.0	0.0	
0.4419318908912934	0.9489063721405977	-0.02657867146527572	0.3144364341709002	1.2727947413061915	-119.0	-0.1490670059372349	-65.0	-0.17090754877014416	104.0	0.22891566265060243	1235.0	9.783132530120483	2028.0	0.6626506024096386	1992.0	0.4381818181818182	-482.0	-0.8045454545454546	-885.0	-0.1510204081632653	148.0	95.27923975408373	39906.0	0.9756861961720493	0.20797388277285467	-0.005825305494690519	0.06891572026463728	1.5228160243695E12	1.522816024374E12	27.302700098898736	26004.0	2808.59375	26496.0	3843.223443223443	2623.0	0.0	0.0	
0.4449266329161343	0.9490821773494693	-0.026239594370992735	0.3139339171303969	1.6456962358515401	-124.0	-0.07170307975783081	-90.0	-0.33766780731771495	115.0	0.26506024096385544	1235.0	9.783132530120483	2025.0	0.674698795180723	1991.0	0.43454545454545457	-478.0	-0.8127272727272727	-894.0	-0.15510204081632656	152.0	95.27030401536283	39903.0	0.9753569204158686	0.20939875578203204	-0.005789317874302365	0.0692641514230848	1.5228160243773125E12	1.522816024383E12	27.302700098898736	26004.0	2816.40625	26752.0	3856.4102564102564	2632.0	0.0	0.0	
0.44793357042605814	0.9492425107304349	-0.025955943436144904	0.31347239882088673	1.8023632751228689	-122.0	-0.10174631391822642	-101.0	-0.16741608281919879	104.0	0.3373493975903615	1236.0	9.771084337349398	2019.0	0.783132530120482	1982.0	0.4318181818181818	-475.0	-0.8172727272727273	-899.0	-0.15408163265306124	151.0	95.27923975408373	39906.0	0.975024103508058	0.2108258802981983	-0.005764790938076179	0.06962192873109639	1.522816024385125E12	1.522816024393E12	27.302700098898736	26004.0	2824.21875	27008.0	3853.4798534798533	2630.0	0.0	0.0	
0.45095123009654553	0.9494185345567664	-0.025663955829506223	0.3129629492627902	2.1107129874850705	-117.0	-0.17739003998545985	-122.0	-0.4258191826348857	121.0	0.3373493975903615	1236.0	9.771084337349398	2019.0	0.9759036144578314	1966.0	0.4309090909090909	-474.0	-0.8009090909090909	-881.0	-0.15408163265306124	151.0	95.27923975408373	39906.0	0.9746878840758221	0.21226146723684636	-0.005737689671305757	0.0699691151830138	1.5228160243929375E12	1.522816024401E12	27.302700098898736	26004.0	2832.03125	27264.0	3853.4798534798533	2630.0	0.0	0.0	
0.4539739566418998	0.9495896160056636	-0.025430844483457452	0.3124625310706505	2.218588817825459	-102.0	-0.4051990922219931	-130.0	-0.4076748504229421	120.0	0.3855421686746988	1237.0	9.759036144578314	2015.0	1.144578313253012	1952.0	0.4354545454545454	-479.0	-0.8054545454545454	-886.0	-0.15510204081632656	152.0	95.28221833522181	39907.0	0.9743488755725098	0.21369832046520978	-0.005723028835326259	0.0703174476348825	1.52281602440075E12	1.522816024422E12	27.302700098898736	26004.0	2839.84375	27520.0	3847.6190476190473	2626.0	0.0	0.0	
0.4570289750835114	0.9497647289246925	-0.02521572205512236	0.31194731454500185	2.7991188073159488	-99.0	-0.44828116194477186	-169.0	-0.527076182181464	128.0	0.42168674698795183	1236.0	9.771084337349398	2012.0	1.3373493975903614	1936.0	0.43636363636363634	-480.0	-0.8154545454545454	-897.0	-0.15612244897959185	153.0	95.27328259415424	39904.0	0.9740039840145998	0.21515103885123593	-0.0057121396808301195	0.07066569935398398	1.5228160244085625E12	1.522816024424E12	27.302700098898736	26004.0	2847.65625	27776.0	3840.29304029304	2621.0	0.0	0.0	
0.46008932167826827	0.9499374943179691	-0.024871529712769732	0.3114484931712458	2.994198473282443	-119.0	-0.13994910941475813	-183.0	-0.5998982188295165	133.0	0.30120481927710846	1237.0	9.759036144578314	2022.0	1.5903614457831325	1915.0	0.43272727272727274	-476.0	-0.81	-891.0	-0.15000000000000002	147.0	95.27328259415424	39904.0	0.9736562123668405	0.21660570505412163	-0.005671231277250486	0.07101679937355997	1.522816024416375E12	1.522816024425E12	27.302700098898736	26004.0	2855.46875	28032.0	3838.8278388278386	2620.0	0.0	0.0	
0.4631760814844301	0.9501146583750943	-0.024403538848372493	0.31094469481317294	3.508720489358475	-129.0	0.013649461604570087	-218.0	-0.5653910317981904	131.0	0.14457831325301207	1236.0	9.771084337349398	2035.0	1.9397590361445785	1886.0	0.43	-473.0	-0.8045454545454546	-885.0	-0.15306122448979592	150.0	95.27626117372786	39905.0	0.973303129830428	0.21807360124514788	-0.005601184607436596	0.07136910139029971	1.5228160244241875E12	1.522816024426E12	27.302700098898736	26004.0	2863.28125	28288.0	3853.4798534798533	2630.0	0.0	0.0	
0.4663249248092584	0.9503030508133133	-0.023907478055241686	0.3104070619492109	4.523804740859783	-111.0	-0.2612494977902771	-286.0	-0.4853354760948171	126.0	0.060240963855421686	1235.0	9.783132530120483	2042.0	2.1566265060240966	1868.0	0.43636363636363634	-480.0	-0.8081818181818182	-889.0	-0.15510204081632656	152.0	95.28519691714213	39908.0	0.9729405569630888	0.21957280523994405	-0.005523955772118286	0.07172127807034342	1.522816024432E12	1.522816024439E12	27.302700098898736	26004.0	2871.09375	28544.0	3841.7582417582416	2622.0	0.0	0.0	
0.46953513768473215	0.9504842109824285	-0.023420716078371446	0.3098890684285121	5.439835275210927	-106.0	-0.3375853756528725	-346.0	-0.27159501807954994	112.0	0.060240963855421686	1234.0	9.795180722891567	2042.0	2.240963855421687	1861.0	0.43363636363636365	-477.0	-0.8163636363636364	-898.0	-0.15000000000000002	147.0	95.28519691714213	39908.0	0.9725684350271498	0.22109872543655876	-0.005448055226911261	0.07208544578078553	1.5228160244398125E12	1.522816024446E12	27.302700098898736	26004.0	2878.90625	28800.0	3831.501831501831	2615.0	0.0	0.0	
0.47279611845342395	0.9506755218569183	-0.022926831237782302	0.3093386696671924	6.279529931699478	-100.0	-0.429188429087987	-401.0	-0.24106066693451175	110.0	0.03614457831325302	1236.0	9.771084337349398	2044.0	2.3734939759036147	1850.0	0.43363636363636365	-477.0	-0.8163636363636364	-898.0	-0.15510204081632656	152.0	95.28519691714213	39908.0	0.9721878627310874	0.2226504794889531	-0.00536951867476695	0.0724478558060962	1.522816024447625E12	1.522816024456E12	27.302700098898736	26004.0	2886.71875	29056.0	3849.0842490842488	2627.0	0.0	0.0	
0.47614393579858405	0.9508629929592459	-0.02242843431934857	0.3087985329540459	7.56197267979108	-95.0	-0.5055243069505825	-485.0	0.09481719566090809	88.0	0.03614457831325302	1237.0	9.759036144578314	2044.0	2.4698795180722892	1842.0	0.43272727272727274	-476.0	-0.8054545454545454	-886.0	-0.1479591836734694	145.0	95.28221833522181	39907.0	0.9717944674817176	0.22424146335997638	-0.005289284544549941	0.07282377737462016	1.5228160244554375E12	1.522816024464E12	27.302700098898736	26004.0	2894.53125	29312.0	3853.4798534798533	2630.0	0.0	0.0	
0.47955847218744496	0.9510571016793914	-0.021964252080970078	0.30823361428584944	8.569606267577338	-77.0	-0.7803334672559259	-551.0	0.30855765367617527	74.0	0.03614457831325302	1240.0	9.72289156626506	2044.0	2.4939759036144578	1840.0	0.4354545454545454	-479.0	-0.8072727272727273	-888.0	-0.1510204081632653	148.0	95.28221833522181	39907.0	0.9713904273420411	0.22586482421569906	-0.005216250345575974	0.073201841387976	1.52281602446325E12	1.522816024473E12	27.302700098898736	26004.0	2902.34375	29568.0	3847.6190476190473	2626.0	0.0	0.0	
0.4830279360643908	0.9512801173639079	-0.02140539730915919	0.3075840491217793	9.607774206508637	-84.0	-0.6734632382482924	-619.0	-0.05785456006428275	98.0	-0.060240963855421686	1238.0	9.74698795180723	2052.0	2.397590361445783	1848.0	0.43727272727272726	-481.0	-0.8181818181818182	-900.0	-0.1469387755102041	144.0	95.27626117372786	39905.0	0.9709769876106418	0.22752045110256988	-0.005119591551335425	0.07356577766186094	1.5228160244710625E12	1.522816024503E12	27.302700098898736	26004.0	2910.15625	29824.0	3854.945054945055	2631.0	0.0	0.0	
0.4865583316523501	0.9515190325754097	-0.02079399143374403	0.30688620133041483	10.55433909200482	-76.0	-0.795600642828445	-681.0	0.1711530735235035	83.0	-0.18072289156626506	1237.0	9.759036144578314	2062.0	2.1927710843373496	1865.0	0.43636363636363634	-480.0	-0.8145454545454546	-896.0	-0.1479591836734694	145.0	95.27626117372786	39905.0	0.9705532875603569	0.22920810943481848	-0.00500899225445031	0.07392474938540214	1.522816024478875E12	1.522816024504E12	27.302700098898736	26004.0	2917.96875	30080.0	3835.8974358974356	2618.0	0.0	0.0	
0.4901614052717542	0.9517683012818946	-0.020139234929701617	0.30615602540439785	11.638308557653675	-62.0	-1.009341100843712	-752.0	0.5528324628364806	58.0	-0.3253012048192771	1239.0	9.734939759036145	2074.0	1.9518072289156627	1885.0	0.4290909090909091	-472.0	-0.81	-891.0	-0.1469387755102041	144.0	95.27626117372786	39905.0	0.9701177468786863	0.23093193690963848	-0.004886475546548771	0.07428404985537947	1.5228160244866875E12	1.522816024505E12	27.302700098898736	26004.0	2925.78125	30336.0	3854.945054945055	2631.0	0.0	0.0	
0.4938351514157926	0.9520355884035814	-0.01947658541745383	0.3053668302771749	12.691743672157491	-35.0	-1.4215548413017274	-821.0	0.8734431498593813	37.0	-0.44578313253012053	1238.0	9.74698795180723	2084.0	1.5542168674698795	1918.0	0.43454545454545457	-478.0	-0.8118181818181818	-893.0	-0.14591836734693878	143.0	95.27328259415424	39904.0	0.9696704214976919	0.23269291075247342	-0.004760392791519579	0.07463659704528863	1.5228160244945E12	1.522816024507E12	27.302700098898736	26004.0	2933.59375	30592.0	3846.1538461538457	2625.0	0.0	0.0	
0.49755695085115914	0.9522816877116292	-0.019008879800881635	0.3046280514624424	13.119224588188025	0.0	-1.9559059863398953	-849.0	1.6062675773402972	-11.0	-0.30120481927710846	1238.0	9.74698795180723	2072.0	1.1686746987951808	1950.0	0.4309090909090909	-474.0	-0.82	-902.0	-0.1469387755102041	144.0	95.27923975408373	39906.0	0.9692139087837085	0.23447101106588564	-0.00468037065466735	0.07500558726175875	1.5228160245023125E12	1.522816024508E12	27.302700098898736	26004.0	2941.40625	30848.0	3857.8754578754574	2633.0	0.0	0.0	
0.5013014021112595	0.9525199930362801	-0.01857486924590439	0.3039089289551398	13.378766572920851	-11.0	-1.7879670550421853	-866.0	1.8352752109280837	-26.0	-0.20481927710843376	1239.0	9.734939759036145	2064.0	0.8674698795180723	1975.0	0.43636363636363634	-480.0	-0.8163636363636364	-898.0	-0.14183673469387756	139.0	95.27923975408373	39906.0	0.9687512305800515	0.23625770511859234	-0.004607206161548925	0.07537986251723314	1.522816024510125E12	1.522816024523E12	27.302700098898736	26004.0	2949.21875	31104.0	3854.945054945055	2631.0	0.0	0.0	
0.5050722058421206	0.9527521809873527	-0.01815994281761784	0.3032053728097551	13.684110084371232	-39.0	-1.3604861390116512	-886.0	2.0490156689433507	-40.0	-0.10843373493975904	1240.0	9.72289156626506	2056.0	0.4096385542168675	2013.0	0.42454545454545456	-467.0	-0.8090909090909091	-890.0	-0.14081632653061227	138.0	95.27328259415424	39904.0	0.9682818645469762	0.23805506258902473	-0.0045374509870773115	0.07575902258943554	1.5228160245179375E12	1.522816024525E12	27.302700098898736	26004.0	2957.03125	31360.0	3819.7802197802193	2607.0	0.0	0.0	
0.5088424425875828	0.9529877845865605	-0.018016031095075092	0.302472651742898	13.592507030936117	0.0	-1.9559059863398953	-880.0	1.8810767376456408	-29.0	0.2530120481927711	1240.0	9.72289156626506	2026.0	-0.1566265060240964	2060.0	0.43	-473.0	-0.81	-891.0	-0.13979591836734695	137.0	95.27626117372786	39905.0	0.9678091278754423	0.23985301980130874	-0.00453437025413996	0.0761279211562171	1.52281602452575E12	1.522816024539E12	27.302700098898736	26004.0	2964.84375	31616.0	3847.6190476190473	2626.0	0.0	0.0	
0.5125862252370906	0.9532273752322026	-0.017847211888158503	0.3017267772932061	13.287163519485736	-36.0	-1.4062876657292083	-860.0	1.529931699477702	-6.0	0.3493975903614458	1241.0	9.710843373493976	2018.0	-0.5421686746987953	2092.0	0.43272727272727274	-476.0	-0.82	-902.0	-0.13979591836734695	137.0	95.27626117372786	39905.0	0.9673363050243469	0.24163979856798434	-0.00452420565933099	0.07648668049418639	1.5228160245335625E12	1.522816024545E12	27.302700098898736	26004.0	2972.65625	31872.0	3854.945054945055	2631.0	0.0	0.0	
0.5163070102951184	0.9534605819394447	-0.017603845577439877	0.301003360958941	12.966552832462835	-52.0	-1.162012856568903	-839.0	1.5910004017677783	-10.0	0.26506024096385544	1240.0	9.72289156626506	2025.0	-0.6867469879518072	2104.0	0.43272727272727274	-476.0	-0.8127272727272727	-894.0	-0.13367346938775512	131.0	95.27328259415424	39904.0	0.9668630283067537	0.24341436811769745	-0.00449418573650714	0.07684485787560033	1.522816024541375E12	1.522816024553E12	27.302700098898736	26004.0	2980.46875	32128.0	3853.4798534798533	2630.0	0.0	0.0	
0.5200528446792766	0.9536944604559341	-0.01726539837649788	0.30028117176167746	13.363499397348331	-66.0	-0.9482723985536359	-865.0	1.7894736842105263	-23.0	0.10843373493975904	1241.0	9.710843373493976	2038.0	-0.8433734939759037	2117.0	0.4254545454545455	-468.0	-0.8136363636363636	-895.0	-0.13367346938775512	131.0	95.27626117372786	39905.0	0.9663831851275198	0.24520065005033348	-0.004439039001307969	0.07720411679715447	1.5228160245491875E12	1.522816024554E12	27.302700098898736	26004.0	2988.28125	32384.0	3854.945054945055	2631.0	0.0	0.0	
0.5238062056039164	0.9539145287662927	-0.01703568721181064	0.2995944878828794	13.302430695058256	-41.0	-1.329951787866613	-861.0	2.247488951386099	-53.0	0.20481927710843376	1239.0	9.734939759036145	2030.0	-1.2530120481927711	2151.0	0.43636363636363634	-480.0	-0.8154545454545454	-897.0	-0.1326530612244898	130.0	95.27626117372786	39905.0	0.9658989776759903	0.2469868102278643	-0.004410866925285694	0.07757077253005315	1.522816024557E12	1.522816024561E12	27.302700098898736	26004.0	2996.09375	32640.0	3847.6190476190473	2626.0	0.0	0.0	
0.5275209020750331	0.9541110855336757	-0.017001555770700314	0.29896987066112496	12.615407794294896	-33.0	-1.4520891924467656	-816.0	2.339092004821213	-59.0	0.5421686746987953	1239.0	9.734939759036145	2002.0	-1.5060240963855422	2172.0	0.43272727272727274	-476.0	-0.8181818181818182	-900.0	-0.13367346938775512	131.0	95.27923975408373	39906.0	0.9654164087364389	0.2487489610169457	-0.004432523002568229	0.07794526845972864	1.5228160245648125E12	1.522816024574E12	27.302700098898736	26004.0	3003.90625	32896.0	3854.945054945055	2631.0	0.0	0.0	
0.5311901340352699	0.9542952019339851	-0.01705545380055014	0.2983785834496767	11.974186420249094	-48.0	-1.2230815588589794	-774.0	2.094817195660908	-43.0	0.7951807228915663	1241.0	9.710843373493976	1981.0	-1.710843373493976	2189.0	0.4309090909090909	-474.0	-0.8181818181818182	-900.0	-0.12959183673469388	127.0	95.27758104363497	39906.0	0.9649364764515227	0.25048676034474343	-0.00447677548839314	0.07831945982028887	1.522816024572625E12	1.522816024578E12	27.296650618824195	26003.0	3011.71875	33152.0	3846.1538461538457	2625.0	0.0	0.0	
0.5348464845611018	0.9544886262258834	-0.01712060407113235	0.2977555160222351	11.88258336681398	-54.0	-1.1314785054238647	-768.0	1.758939333065488	-21.0	0.8674698795180723	1242.0	9.698795180722891	1975.0	-2.0120481927710845	2214.0	0.42727272727272725	-470.0	-0.8154545454545454	-897.0	-0.12959183673469388	127.0	95.27758104363497	39906.0	0.9644549983302522	0.2522208990298838	-0.0045240708292460866	0.0786810464564534	1.5228160245804375E12	1.522816024589E12	27.296650618824195	26003.0	3019.53125	33408.0	3850.5494505494503	2628.0	0.0	0.0	
0.538480114059135	0.9546822812493814	-0.01720511818833969	0.297129139898132	11.531438328646042	-60.0	-1.0398754519887503	-745.0	1.697870630775412	-17.0	0.9397590361445783	1241.0	9.710843373493976	1969.0	-2.5180722891566267	2256.0	0.4290909090909091	-472.0	-0.8154545454545454	-897.0	-0.1326530612244898	130.0	95.27162396227978	39904.0	0.9639733187314343	0.25394448327041913	-0.004576543352440315	0.07903603887700633	1.52281602458825E12	1.522816024596E12	27.296650618824195	26003.0	3027.34375	33664.0	3844.688644688644	2624.0	0.0	0.0	
0.5420462565264448	0.954870056874272	-0.01723203001760718	0.29652357684742925	10.5390719164323	-87.0	-0.6276617115307351	-680.0	1.4688629971876257	-2.0	0.9397590361445783	1238.0	9.74698795180723	1969.0	-3.036144578313253	2299.0	0.43272727272727274	-476.0	-0.8154545454545454	-897.0	-0.12653061224489798	124.0	95.26864542277548	39903.0	0.9634974915084162	0.2556352890067974	-0.0046133135519452586	0.07938450862398623	1.5228160245960625E12	1.522816024608E12	27.296650618824195	26003.0	3035.15625	33920.0	3854.945054945055	2631.0	0.0	0.0	
0.5455097043248595	0.955050521949931	-0.017208240296903404	0.2959431989234538	9.04288871032543	-111.0	-0.2612494977902771	-582.0	1.209321012454801	15.0	0.9036144578313253	1238.0	9.74698795180723	1972.0	-3.4096385542168677	2330.0	0.4309090909090909	-474.0	-0.8172727272727273	-899.0	-0.12755102040816327	125.0	95.26864542277548	39903.0	0.9630324344924126	0.2572767313689415	-0.004635649857726285	0.07972279700391209	1.522816024603875E12	1.522816024609E12	27.296650618824195	26003.0	3042.96875	34176.0	3841.7582417582416	2622.0	0.0	0.0	
0.548880196852282	0.955229076160988	-0.01730216247311824	0.29536087626898866	7.699377259943752	-70.0	-0.8872036962635595	-494.0	0.8734431498593813	37.0	0.9879518072289157	1239.0	9.734939759036145	1965.0	-3.6867469879518073	2353.0	0.4254545454545455	-468.0	-0.8172727272727273	-899.0	-0.12653061224489798	124.0	95.27162396227978	39904.0	0.9625770863224483	0.2588747511204473	-0.0046890249845359085	0.08004516952325827	1.5228160246116875E12	1.522816024656E12	27.296650618824195	26003.0	3050.78125	34432.0	3825.6410256410254	2611.0	0.0	0.0	
0.5521633807858651	0.9553921587878442	-0.017419772649059227	0.2948260070746084	6.371132985134592	-77.0	-0.7803334672559259	-407.0	0.8276416231418241	40.0	1.0602409638554218	1238.0	9.74698795180723	1959.0	-3.9397590361445785	2374.0	0.42818181818181816	-471.0	-0.8163636363636364	-898.0	-0.12551020408163266	123.0	95.27758104363497	39906.0	0.9621309049278599	0.26042826961248977	-0.004748417920650818	0.0803659797214748	1.5228160246195E12	1.522816024657E12	27.296650618824195	26003.0	3058.59375	34688.0	3846.1538461538457	2625.0	0.0	0.0	
0.5553425281483327	0.95555728996348	-0.017422515748968536	0.2942901995354775	4.951285656890317	-112.0	-0.245982322217758	-314.0	0.33909200482121343	72.0	0.9518072289156627	1236.0	9.771084337349398	1968.0	-4.120481927710844	2389.0	0.4318181818181818	-475.0	-0.8145454545454546	-896.0	-0.12346938775510205	121.0	95.27758104363497	39906.0	0.9616963911502828	0.2619343609332157	-0.004775805256772592	0.08066990451946623	1.5228160246273125E12	1.52281602466E12	27.296650618824195	26003.0	3066.40625	34944.0	3854.945054945055	2631.0	0.0	0.0	
0.5584039374752789	0.9557121754818575	-0.017344230472693487	0.2937914486588118	3.241361992768179	-136.0	0.12042989152269999	-202.0	0.23222177581357983	79.0	0.819277108433735	1234.0	9.795180722891567	1979.0	-4.1084337349397595	2388.0	0.43363636363636365	-477.0	-0.8163636363636364	-898.0	-0.12755102040816327	125.0	95.27162396227978	39904.0	0.9612756727085127	0.2633833884354785	-0.004779872339076013	0.08096557648448069	1.522816024635125E12	1.522816024662E12	27.296650618824195	26003.0	3074.21875	35200.0	3850.5494505494503	2628.0	0.0	0.0	
0.5613722287206161	0.9558508947963074	-0.017232765809714612	0.2933463800691021	1.867316191241462	-152.0	0.3647047006830053	-112.0	0.1864202490960226	82.0	0.7590361445783133	1237.0	9.759036144578314	1984.0	-4.0843373493975905	2386.0	0.4254545454545455	-468.0	-0.8181818181818182	-900.0	-0.12448979591836735	122.0	95.27460250256627	39905.0	0.9608656005367997	0.26478501402172316	-0.00477373423135282	0.08126134084581389	1.5228160246429375E12	1.522816024667E12	27.296650618824195	26003.0	3082.03125	35456.0	3853.4798534798533	2630.0	0.0	0.0	
0.5642557010199073	0.9559792714412182	-0.01716372685621153	0.2929317993238745	0.6001406187223781	-144.0	0.24256729610285266	-29.0	0.11008437123342717	87.0	0.8072289156626506	1237.0	9.759036144578314	1980.0	-4.1807228915662655	2394.0	0.4263636363636364	-469.0	-0.8127272727272727	-894.0	-0.12346938775510205	121.0	95.27460250256627	39905.0	0.9604652195392984	0.26614463269806105	-0.004778381620126107	0.08155221401307182	1.52281602465075E12	1.522816024679E12	27.296650618824195	26003.0	3089.84375	35712.0	3846.1538461538457	2625.0	0.0	0.0	
0.5670414421099625	0.9560989431386404	-0.017023831316702324	0.29254914133607574	-0.8197067095218966	-168.0	0.6089795098433106	64.0	0.018481317798312667	93.0	0.710843373493976	1235.0	9.783132530120483	1988.0	-4.216867469879518	2397.0	0.4318181818181818	-475.0	-0.8145454545454546	-896.0	-0.12551020408163266	123.0	95.27460250256627	39905.0	0.9600765128062642	0.26745676339806135	-0.004762204641344872	0.08183697622316366	1.5228160246585625E12	1.522816024681E12	27.296650618824195	26003.0	3097.65625	35968.0	3841.7582417582416	2622.0	0.0	0.0	
0.569716798614269	0.9562099784890598	-0.016829528845047854	0.29219726897561005	-2.4227601446364004	-186.0	0.8837886701486541	169.0	-0.10365608678184	101.0	0.6144578313253012	1237.0	9.759036144578314	1996.0	-4.228915662650603	2398.0	0.43454545454545457	-478.0	-0.8154545454545454	-897.0	-0.1285714285714286	126.0	95.26864542277548	39903.0	0.9597014551262049	0.2687156195768367	-0.004729460445423516	0.08211373227406557	1.522816024666375E12	1.522816024684E12	27.296650618824195	26003.0	3105.46875	36224.0	3846.1538461538457	2625.0	0.0	0.0	
0.5722971213480657	0.9562984850830845	-0.016671942166113653	0.2919165184983603	-3.8884089995982327	-181.0	0.8074527922860587	265.0	-0.027320208919244585	96.0	0.6265060240963856	1235.0	9.783132530120483	1995.0	-4.228915662650603	2398.0	0.42454545454545456	-467.0	-0.8172727272727273	-899.0	-0.12142857142857144	119.0	95.26864542277548	39903.0	0.9593380933478959	0.2699243276957604	-0.004705813980432947	0.0823962091627815	1.5228160246741875E12	1.522816024685E12	27.296650618824195	26003.0	3113.28125	36480.0	3822.7106227106224	2609.0	0.0	0.0	
0.5747939697011579	0.9563731308119183	-0.016524719744315717	0.29168025009996085	-5.125050220972278	-212.0	1.2807352350341503	346.0	-0.10365608678184	101.0	0.7710843373493976	1236.0	9.771084337349398	1983.0	-4.265060240963856	2401.0	0.43	-473.0	-0.8127272727272727	-894.0	-0.12653061224489798	124.0	95.26864542277548	39903.0	0.9589849662672211	0.2710905971756979	-0.0046840464242701284	0.08267878993717324	1.522816024682E12	1.522816024692E12	27.296650618824195	26003.0	3121.09375	36736.0	3843.223443223443	2623.0	0.0	0.0	
0.5771842181013339	0.9564272412037191	-0.016338356837657976	0.29151327650604814	-6.6975693049417435	-255.0	1.937223784652471	449.0	-0.2105263157894736	108.0	0.8313253012048193	1237.0	9.759036144578314	1978.0	-4.240963855421687	2399.0	0.43363636363636365	-477.0	-0.8190909090909091	-901.0	-0.12448979591836735	122.0	95.26864542277548	39903.0	0.9586455152346546	0.27220190840164776	-0.004649942745002105	0.08296550617849023	1.5228160246898125E12	1.522816024699E12	27.296650618824195	26003.0	3128.90625	36992.0	3854.945054945055	2631.0	0.0	0.0	
0.5794626392212149	0.9564738634841023	-0.0161375051409955	0.29137146291223653	-8.25482121333869	-278.0	2.2883688228204098	551.0	-0.5922057051024506	133.0	0.8795180722891567	1238.0	9.74698795180723	1974.0	-4.144578313253012	2391.0	0.4318181818181818	-475.0	-0.8190909090909091	-901.0	-0.12448979591836735	122.0	95.26864542277548	39903.0	0.9583206706795556	0.27325956460850614	-0.004610400552538731	0.08324329825878679	1.522816024697625E12	1.522816024704E12	27.296650618824195	26003.0	3136.71875	37248.0	3850.5494505494503	2628.0	0.0	0.0	
0.5816536144203864	0.9565058824469683	-0.016009211678623094	0.2912734144850368	-9.552531137002813	-271.0	2.181498593812776	636.0	-0.638007231820008	136.0	0.9879518072289157	1239.0	9.734939759036145	1965.0	-4.048192771084338	2383.0	0.42454545454545456	-467.0	-0.8181818181818182	-900.0	-0.12551020408163266	123.0	95.27162396227978	39904.0	0.9580071206455398	0.2742727151342607	-0.004590551960874654	0.08352102344929092	1.5228160247054375E12	1.522816024715E12	27.296650618824195	26003.0	3144.53125	37504.0	3853.4798534798533	2630.0	0.0	0.0	
0.5836957353169081	0.9565271892601551	-0.015951469813055053	0.2912066050364736	-11.659401366010446	-276.0	2.2578344716753715	774.0	-1.0502209722780231	163.0	1.1686746987951808	1239.0	9.734939759036145	1950.0	-3.8674698795180724	2368.0	0.4263636363636364	-469.0	-0.8127272727272727	-894.0	-0.1306122448979592	128.0	95.27162396227978	39904.0	0.9577138379283437	0.27521434041238724	-0.004589595876102216	0.08378667603879905	1.52281602471325E12	1.522816024727E12	27.296650618824195	26003.0	3152.34375	37760.0	3840.29304029304	2621.0	0.0	0.0	
0.5856110942499893	0.9565404717607234	-0.01595779730833539	0.2911626256730731	-13.415126556850142	-272.0	2.196765769385295	889.0	-1.4777018883085575	191.0	1.313253012048193	1240.0	9.72289156626506	1938.0	-3.5783132530120483	2344.0	0.43272727272727274	-476.0	-0.81	-891.0	-0.12959183673469388	127.0	95.27162396227978	39904.0	0.957437852910445	0.2760953582858948	-0.004606050549213633	0.08404103310620614	1.5228160247210625E12	1.522816024735E12	27.296650618824195	26003.0	3160.15625	38016.0	3854.945054945055	2631.0	0.0	0.0	
0.5874522474736353	0.956559497213925	-0.015971847695444664	0.2910993445046522	-14.315889915628768	-280.0	2.318903173965448	948.0	-2.0120530333467253	226.0	1.3734939759036144	1241.0	9.710843373493976	1933.0	-3.3012048192771086	2321.0	0.4318181818181818	-475.0	-0.8145454545454546	-896.0	-0.1346938775510204	132.0	95.28353812811899	39908.0	0.9571717324843099	0.27694383932890926	-0.00462418159543275	0.08427930549856613	1.522816024728875E12	1.522816024741E12	27.296650618824195	26003.0	3167.96875	38272.0	3849.0842490842488	2627.0	0.0	0.0	
0.5891882595504061	0.9565731067452506	-0.016052342827345502	0.29105019110368546	-15.73573724387304	-263.0	2.059361189232624	1041.0	-2.4242667738047405	253.0	1.4457831325301205	1243.0	9.686746987951807	1927.0	-2.963855421686747	2293.0	0.4254545454545455	-468.0	-0.8163636363636364	-898.0	-0.1326530612244898	130.0	95.27460250256627	39905.0	0.956920066158788	0.2777424255812735	-0.004660821636831192	0.08450685626954266	1.5228160247366875E12	1.522816024749E12	27.296650618824195	26003.0	3175.78125	38528.0	3850.5494505494503	2628.0	0.0	0.0	
0.5908639491569663	0.9565936134991266	-0.016126199643536166	0.29097870076303106	-16.483828846926475	-254.0	1.9219566090799518	1090.0	-2.7906789875451987	277.0	1.3975903614457832	1245.0	9.66265060240964	1931.0	-2.674698795180723	2269.0	0.4290909090909091	-472.0	-0.8163636363636364	-898.0	-0.13367346938775512	131.0	95.27460250256627	39905.0	0.9566764608301017	0.2785152315829231	-0.004695193617112757	0.08471936158163328	1.5228160247445E12	1.52281602475E12	27.296650618824195	26003.0	3183.59375	38784.0	3843.223443223443	2623.0	0.0	0.0	
0.5924652608453699	0.9566121549835391	-0.016095248402740094	0.2909194526266749	-17.445660907995176	-302.0	2.654781036560868	1153.0	-3.1112896745680994	298.0	1.349397590361446	1247.0	9.63855421686747	1935.0	-2.3855421686746987	2245.0	0.43636363636363634	-480.0	-0.8081818181818182	-889.0	-0.1346938775510204	132.0	95.27460250256627	39905.0	0.9564430407555604	0.2792532755156984	-0.0046985090177756785	0.08492491929357823	1.5228160247523125E12	1.522816024758E12	27.296650618824195	26003.0	3191.40625	39040.0	3856.4102564102564	2632.0	0.0	0.0	
0.594018252504007	0.9566459412751105	-0.015815872764518565	0.2908236599909882	-17.857874648453194	-390.0	3.998292486942548	1180.0	-3.8441141020490153	346.0	1.1325301204819278	1246.0	9.650602409638555	1953.0	-2.1204819277108435	2223.0	0.4318181818181818	-475.0	-0.8181818181818182	-900.0	-0.13979591836734695	137.0	95.26864542277548	39903.0	0.9562160785410957	0.2799735302134345	-0.004628698602313278	0.08511291716634492	1.522816024760125E12	1.522816024768E12	27.296650618824195	26003.0	3199.21875	39296.0	3853.4798534798533	2630.0	0.0	0.0	
0.5955243946710052	0.9566865876795738	-0.01538406220037977	0.29071309496516873	-18.438027320208917	-424.0	4.517376456408196	1218.0	-3.9967858577742064	356.0	0.9156626506024097	1247.0	9.63855421686747	1971.0	-1.9156626506024097	2206.0	0.43636363636363634	-480.0	-0.7981818181818182	-878.0	-0.14081632653061227	138.0	95.26864542277548	39903.0	0.9559954124322381	0.28067425514526495	-0.004513400997575425	0.08528987699956396	1.5228160247679375E12	1.522816024774E12	27.296650618824195	26003.0	3207.03125	39552.0	3854.945054945055	2631.0	0.0	0.0	
0.5969670017865389	0.9567414107993135	-0.01480881880294453	0.29056250919105087	-19.140317396544795	-446.0	4.853254319003616	1264.0	-4.561671353957412	393.0	0.6867469879518072	1246.0	9.650602409638555	1990.0	-1.674698795180723	2186.0	0.4409090909090909	-485.0	-0.8072727272727273	-888.0	-0.14081632653061227	138.0	95.26566688405339	39902.0	0.9557835465565839	0.2813499995391071	-0.004354845642044779	0.0854460368331771	1.52281602477575E12	1.522816024808E12	27.296650618824195	26003.0	3214.84375	39808.0	3846.1538461538457	2625.0	0.0	0.0	
0.5983532743735938	0.9568032429849178	-0.014156002039488974	0.29039139419032556	-19.827340297308155	-436.0	4.7005825632784255	1309.0	-4.699075934110084	402.0	0.44578313253012053	1245.0	9.66265060240964	2010.0	-1.349397590361446	2159.0	0.4354545454545454	-479.0	-0.8054545454545454	-886.0	-0.14591836734693878	143.0	95.27162396227978	39904.0	0.9555794856229709	0.2820019858775182	-0.004172248282487285	0.08558807721840452	1.5228160247835625E12	1.52281602481E12	27.296650618824195	26003.0	3222.65625	40064.0	3854.945054945055	2631.0	0.0	0.0	
0.5997153127794438	0.9568551855863607	-0.013371221107662541	0.2902574103491289	-20.117416633186018	-455.0	4.990658899156288	1328.0	-4.439533949377259	385.0	0.18072289156626506	1248.0	9.626506024096386	2032.0	-0.963855421686747	2127.0	0.4354545454545454	-479.0	-0.82	-902.0	-0.1469387755102041	144.0	95.27162396227978	39904.0	0.955378544860218	0.282639920372971	-0.003949647685551509	0.08573745806526561	1.522816024791375E12	1.522816024812E12	27.296650618824195	26003.0	3230.46875	40320.0	3852.014652014652	2629.0	0.0	0.0	
0.6010533424064318	0.9568969315504569	-0.012582501753891686	0.29015503276512916	-20.453294495781435	-445.0	4.837987143431097	1350.0	-4.195259140216955	369.0	0.10843373493975904	1247.0	9.63855421686747	2038.0	-0.6024096385542169	2097.0	0.4290909090909091	-472.0	-0.8109090909090909	-892.0	-0.1489795918367347	146.0	95.26864542277548	39903.0	0.9551807146531488	0.28326380070980023	-0.0037247138659647267	0.08589265433525244	1.5228160247991875E12	1.522816024813E12	27.296650618824195	26003.0	3238.28125	40576.0	3852.014652014652	2629.0	0.0	0.0	
0.6023572634012764	0.9569308421652353	-0.011873617074533726	0.2900730606769647	-20.92657693852953	-407.0	4.257834471675372	1381.0	-4.073121735636802	361.0	0.14457831325301207	1247.0	9.63855421686747	2035.0	-0.13253012048192772	2058.0	0.43272727272727274	-476.0	-0.8036363636363636	-884.0	-0.15306122448979592	150.0	95.26864542277548	39903.0	0.9549875161588981	0.2838696979994842	-0.0035222609039153594	0.08604901054901698	1.522816024807E12	1.522816024814E12	27.296650618824195	26003.0	3246.09375	40832.0	3850.5494505494503	2628.0	0.0	0.0	
0.603669092196365	0.9569645354609914	-0.011150452944159464	0.28999059513899755	-20.651767778224183	-415.0	4.379971876255524	1363.0	-4.302129369224588	376.0	0.18072289156626506	1247.0	9.63855421686747	2032.0	0.3373493975903615	2019.0	0.4381818181818182	-482.0	-0.8090909090909091	-890.0	-0.15510204081632656	152.0	95.26864542277548	39903.0	0.9547927363672519	0.28447906494578107	-0.0033147209846688393	0.0862061761865316	1.5228160248148125E12	1.522816024826E12	27.296650618824195	26003.0	3253.90625	41088.0	3857.8754578754574	2633.0	0.0	0.0	
0.6049820668596272	0.9569920292473817	-0.010408821569997057	0.2899274260750572	-20.54489754921655	-403.0	4.196765769385296	1356.0	-4.241060666934511	372.0	0.0963855421686747	1248.0	9.626506024096386	2039.0	0.746987951807229	1985.0	0.43454545454545457	-478.0	-0.8145454545454546	-896.0	-0.15408163265306124	151.0	95.27460250256627	39905.0	0.954597375124789	0.28508702827893284	-0.0031007781868463624	0.08636910840448798	1.522816024822625E12	1.522816024828E12	27.296650618824195	26003.0	3261.71875	41344.0	3840.29304029304	2621.0	0.0	0.0	
0.6063252299508398	0.957028214716521	-0.009598304909568957	0.2898359342444779	-19.964744877460827	-395.0	4.074628364805143	1318.0	-4.134190437926878	365.0	-0.024096385542168676	1247.0	9.63855421686747	2049.0	1.072289156626506	1958.0	0.4490909090909091	-494.0	-0.7981818181818182	-878.0	-0.15714285714285717	154.0	95.26864542277548	39903.0	0.9543970963549453	0.28571128475711005	-0.002865478765446562	0.08652764450240981	1.5228160248304375E12	1.522816024842E12	27.296650618824195	26003.0	3269.53125	41600.0	3854.945054945055	2631.0	0.0	0.0	
0.6077113980906346	0.9570712758668747	-0.008781505885204243	0.2897196197445728	-19.23192044997991	-378.0	3.815086380072318	1270.0	-4.134190437926878	365.0	-0.10843373493975904	1246.0	9.650602409638555	2056.0	1.2289156626506024	1945.0	0.43454545454545457	-478.0	-0.8	-880.0	-0.15918367346938778	156.0	95.26864542277548	39903.0	0.954189953764512	0.2863571526019009	-0.0026274396528787906	0.0866845421599522	1.52281602483825E12	1.522816024844E12	27.296650618824195	26003.0	3277.34375	41856.0	3847.6190476190473	2626.0	0.0	0.0	
0.6091348208197646	0.957110209603997	-0.007954932242210846	0.28961485756917404	-18.72810365608678	-366.0	3.631880273202089	1237.0	-3.6609079951787864	334.0	-0.1927710843373494	1246.0	9.650602409638555	2063.0	1.2771084337349399	1941.0	0.43636363636363634	-480.0	-0.7990909090909091	-879.0	-0.16224489795918368	159.0	95.26566688405339	39902.0	0.9539767670167756	0.28701871009297875	-0.0023855292401290767	0.08684985491656065	1.5228160248460625E12	1.522816024855E12	27.296650618824195	26003.0	3285.15625	42112.0	3854.945054945055	2631.0	0.0	0.0	
0.6105606410873121	0.9571501720171428	-0.00707667033838467	0.2895055594362118	-18.57543190036159	-359.0	3.5250100441944556	1227.0	-3.6761751707513057	335.0	-0.3253012048192771	1244.0	9.674698795180724	2074.0	1.457831325301205	1926.0	0.4381818181818182	-482.0	-0.8127272727272727	-894.0	-0.16224489795918368	159.0	95.26566688405339	39902.0	0.9537627367462395	0.2876815785960652	-0.0021269679029154377	0.0870139491020796	1.522816024853875E12	1.522816024859E12	27.296650618824195	26003.0	3292.96875	42368.0	3853.4798534798533	2630.0	0.0	0.0	
0.6120119519190043	0.9571830638500849	-0.006103787302411331	0.2894189455773971	-18.147950984331054	-362.0	3.5708115709120127	1199.0	-3.1570912012856565	301.0	-0.5180722891566265	1243.0	9.686746987951807	2090.0	1.6867469879518073	1907.0	0.44272727272727275	-487.0	-0.8090909090909091	-890.0	-0.1653061224489796	162.0	95.26566688405339	39902.0	0.9535443822629972	0.28835385814083664	-0.0018387816128316054	0.08718820122100084	1.5228160248616875E12	1.522816024872E12	27.296650618824195	26003.0	3300.78125	42624.0	3853.4798534798533	2630.0	0.0	0.0	
0.6135085985653872	0.9572179172151799	-0.0050925789258189	0.2893232182216229	-17.41512655685014	-358.0	3.5097428686219363	1151.0	-2.8975492165528323	284.0	-0.6144578313253012	1242.0	9.698795180722891	2098.0	1.8192771084337351	1896.0	0.43636363636363634	-480.0	-0.7972727272727272	-877.0	-0.1673469387755102	164.0	95.26864542277548	39903.0	0.953318680972986	0.28904730894195096	-0.0015377859185554128	0.08736578801688431	1.5228160248695E12	1.522816024874E12	27.296650618824195	26003.0	3308.59375	42880.0	3846.1538461538457	2625.0	0.0	0.0	
0.6150737904028167	0.9572423914840049	-0.004200886258047749	0.28925655826727464	-16.57543190036159	-315.0	2.8532543190036157	1096.0	-2.225793491361993	240.0	-0.5421686746987953	1240.0	9.72289156626506	2092.0	1.927710843373494	1887.0	0.4390909090909091	-483.0	-0.7981818181818182	-878.0	-0.17040816326530614	167.0	95.27460250256627	39905.0	0.9530820716694387	0.28976877417659985	-0.001271658748378947	0.08756143590936127	1.5228160248773125E12	1.522816024881E12	27.296650618824195	26003.0	3316.40625	43136.0	3856.4102564102564	2632.0	0.0	0.0	
0.6166655963405137	0.957250842957744	-0.0033931881689727357	0.28923919155387884	-16.285355564483726	-301.0	2.6395138609883486	1077.0	-1.93571715548413	221.0	-0.43373493975903615	1241.0	9.710843373493976	2083.0	2.108433734939759	1872.0	0.4409090909090909	-485.0	-0.81	-891.0	-0.16938775510204082	166.0	95.27460250256627	39905.0	0.9528408404321929	0.29049737369657747	-0.0010297324455721484	0.0877755565687521	1.522816024885125E12	1.522816024894E12	27.296650618824195	26003.0	3324.21875	43392.0	3857.8754578754574	2633.0	0.0	0.0	
0.6183358561666578	0.9572598328470983	-0.002609246339814879	0.2892175725143301	-15.125050220972279	-291.0	2.486842105263158	1001.0	-1.6456408196062675	202.0	-0.39759036144578314	1241.0	9.710843373493976	2080.0	2.27710843373494	1858.0	0.44545454545454544	-490.0	-0.8045454545454546	-885.0	-0.17142857142857143	168.0	95.27162396227978	39904.0	0.9525870709097037	0.29126173604657	-7.939052623228888E-4	0.08799910888891727	1.5228160248929375E12	1.522816024898E12	27.296650618824195	26003.0	3332.03125	43648.0	3857.8754578754574	2633.0	0.0	0.0	
0.6200648267839043	0.9572699890007135	-0.0018911750288446146	0.28918954271477504	-14.285355564483728	-272.0	2.196765769385295	946.0	-1.4777018883085575	191.0	-0.3373493975903615	1240.0	9.72289156626506	2075.0	2.325301204819277	1854.0	0.4381818181818182	-482.0	-0.8009090909090909	-881.0	-0.17142857142857143	168.0	95.27162396227978	39904.0	0.9523236814002896	0.2920530267552319	-5.769776527461691E-4	0.0882286943352076	1.52281602490075E12	1.522816024909E12	27.296650618824195	26003.0	3339.84375	43904.0	3846.1538461538457	2625.0	0.0	0.0	
0.6218636312854918	0.9572847570053967	-0.0012014337515112872	0.28914434208896783	-13.27772197669747	-264.0	2.0746283648051427	880.0	-1.202892728003214	173.0	-0.30120481927710846	1242.0	9.698795180722891	2072.0	2.313253012048193	1855.0	0.44272727272727275	-487.0	-0.7981818181818182	-878.0	-0.17551020408163268	172.0	95.27162396227978	39904.0	0.9520488980712039	0.2928773495961998	-3.6757373423429684E-4	0.08846252689394532	1.5228160249085625E12	1.522816024912E12	27.296650618824195	26003.0	3347.65625	44160.0	3854.945054945055	2631.0	0.0	0.0	
0.6237144328986837	0.9572989708405651	-5.79744067985964E-4	0.28909919461044703	-12.60596625150663	-258.0	1.9830253113700282	836.0	-0.9738850944154277	158.0	-0.20481927710843376	1239.0	9.734939759036145	2064.0	2.180722891566265	1866.0	0.44545454545454544	-490.0	-0.8072727272727273	-888.0	-0.17755102040816328	174.0	95.27162396227978	39904.0	0.9517653678745875	0.29372497879974985	-1.7788101655320638E-4	0.08870338044280705	1.522816024916375E12	1.522816024929E12	27.296650618824195	26003.0	3355.46875	44416.0	3856.4102564102564	2632.0	0.0	0.0	
0.6256241186314399	0.9573233950993041	8.57682671949936E-5	0.28901887453823333	-11.689935717155485	-272.0	2.196765769385295	776.0	-0.9738850944154277	158.0	-0.2530120481927711	1239.0	9.734939759036145	2068.0	1.9879518072289157	1882.0	0.4390909090909091	-483.0	-0.8045454545454546	-885.0	-0.17448979591836736	171.0	95.27162396227978	39904.0	0.9514719626649167	0.2946023412381236	2.6393935893482517E-5	0.08894135204137449	1.5228160249241875E12	1.52281602493E12	27.296650618824195	26003.0	3363.28125	44672.0	3819.7802197802193	2607.0	0.0	0.0	
0.6275865970582583	0.9573467384161267	6.538074631707297E-4	0.28894081570418895	-11.109783045399759	-252.0	1.8914222579349136	738.0	-0.4548011249497789	124.0	-0.1566265060240964	1239.0	9.734939759036145	2060.0	1.6626506024096386	1909.0	0.44272727272727275	-487.0	-0.8027272727272727	-883.0	-0.17653061224489797	173.0	95.27162396227978	39904.0	0.9511695425741133	0.29550318242509044	2.018100425973846E-4	0.08918704910861279	1.522816024932E12	1.522816024959E12	27.296650618824195	26003.0	3371.09375	44928.0	3846.1538461538457	2625.0	0.0	0.0	
0.6295713013496187	0.9573715044840589	0.0012014559309583006	0.28885698694262807	-10.834973885094415	-268.0	2.135697067095219	720.0	-0.36319807151466443	118.0	-0.07228915662650603	1239.0	9.734939759036145	2053.0	1.457831325301205	1926.0	0.44363636363636366	-488.0	-0.7990909090909091	-879.0	-0.1795918367346939	176.0	95.27758104363497	39906.0	0.9508627660226145	0.2964143395950472	3.7198596851854306E-4	0.089433780534503	1.5228160249398125E12	1.52281602496E12	27.296650618824195	26003.0	3378.90625	45184.0	3860.8058608058604	2635.0	0.0	0.0	
0.6315668624907024	0.9573930331113021	0.0017664846579564342	0.28878272053897525	-10.697569304941744	-270.0	2.1662314182402573	711.0	-0.11892326235435909	102.0	-0.12048192771084337	1239.0	9.734939759036145	2057.0	1.3975903614457832	1931.0	0.4445454545454545	-489.0	-0.7981818181818182	-878.0	-0.17857142857142858	175.0	95.27162396227978	39904.0	0.9505533672524731	0.29732918635796257	5.486017005546246E-4	0.08968472546019697	1.522816024947625E12	1.522816024968E12	27.296650618824195	26003.0	3386.71875	45440.0	3846.1538461538457	2625.0	0.0	0.0	
0.6335594611829699	0.9574161834447766	0.002355912346202438	0.2887017515621524	-10.636500602651667	-279.0	2.303635998392929	707.0	-0.286862193652069	113.0	-0.14457831325301207	1240.0	9.72289156626506	2059.0	1.493975903614458	1923.0	0.4390909090909091	-483.0	-0.8036363636363636	-884.0	-0.1795918367346939	176.0	95.27162396227978	39904.0	0.9502434835582372	0.29824293553862685	7.338858754977757E-4	0.08993294595380744	1.5228160249554375E12	1.522816024977E12	27.296650618824195	26003.0	3394.53125	45696.0	3852.014652014652	2629.0	0.0	0.0	
