belt	belt	belt	belt	belt	belt	belt	belt	belt	belt	belt	belt	belt	belt	belt	belt	belt	belt	belt	belt	belt	belt	belt	belt	belt	belt	belt	belt	belt	belt	belt	belt	belt	belt	belt	belt	Annotation	Annotation	
Axis Angle A	Axis Angle X	Axis Angle Y	Axis Angle Z	Gyroscope X	Gyroscope X	Gyroscope Y	Gyroscope Y	Gyroscope Z	Gyroscope Z	Low Noise Accelerometer X	Low Noise Accelerometer X	Low Noise Accelerometer Y	Low Noise Accelerometer Y	Low Noise Accelerometer Z	Low Noise Accelerometer Z	Magnetometer X	Magnetometer X	Magnetometer Y	Magnetometer Y	Magnetometer Z	Magnetometer Z	Pressure	Pressure	Quaternion 0	Quaternion 1	Quaternion 2	Quaternion 3	SyncTimestamp	SystemTimestamp	Temperature	Temperature	Timestamp	Timestamp	VSenseBatt	VSenseBatt	Level	Pulse	
CAL	CAL	CAL	CAL	CAL	RAW	CAL	RAW	CAL	RAW	CAL	RAW	CAL	RAW	CAL	RAW	CAL	RAW	CAL	RAW	CAL	RAW	CAL	RAW	CAL	CAL	CAL	CAL	CAL	UNCAL	CAL	RAW	CAL	RAW	CAL	RAW	no format	no format	
local	local	local	local	deg/s	No Units	deg/s	No Units	deg/s	No Units	m/s^2	No Units	m/s^2	No Units	m/s^2	No Units	local flux	No Units	local flux	No Units	local flux	No Units	kPa	No Units	local	local	local	local	mSecs	mSecs	Degrees Celsius	No Units	mSecs	No Units	mV	No Units	no unit	no unit	
0.0031394454721525066	0.9271152177711122	-0.0802863890467774	0.3660757691614773	0.2947971072719964	-119.0	-0.13911209321012444	-9.0	-0.1952591402169545	107.0	0.45783132530120485	1236.0	9.771084337349398	2009.0	-0.024096385542168676	2049.0	0.42818181818181816	-471.0	-0.8118181818181818	-893.0	-0.15204081632653063	149.0	95.27761308327432	39901.0	0.9999987679855189	0.0014553132386416455	-1.260273185283373E-4	5.746372219921305E-4	1.5228160423606875E12	1.522816042377E12	27.351088732175242	26012.0	800.78125	26240.0	3852.014652014652	2629.0	0.0	0.0	
0.00626830144641582	0.9260751517821996	-0.08078131168070941	0.3685908204889476	0.030534351145038167	-109.0	-0.15267175572519084	-11.0	0.04580152671755725	104.0	0.46987951807228917	1235.0	9.783132530120483	2008.0	-0.024096385542168676	2049.0	0.42818181818181816	-471.0	-0.8063636363636364	-887.0	-0.15204081632653063	149.0	95.27761308327432	39901.0	0.9999950885536425	0.002902454354944097	-2.5318039193099345E-4	0.001155217295336924	1.5228160423685E12	1.522816042377E12	27.351088732175242	26012.0	808.59375	26496.0	3844.688644688644	2624.0	0.0	0.0	
0.009394604683005386	0.9256150377770018	-0.07842493375298737	0.3702517138430819	-0.015267175572519083	-120.0	0.0916030534351145	-9.0	0.11450381679389313	98.0	0.44578313253012053	1237.0	9.759036144578314	2010.0	-0.060240963855421686	2052.0	0.42363636363636364	-466.0	-0.8136363636363636	-895.0	-0.15204081632653063	149.0	95.27463419258041	39900.0	0.9999889676956416	0.0043478776951727735	-3.6838427023499283E-4	0.0017391778466391574	1.5228160423763125E12	1.522816042384E12	27.351088732175242	26012.0	816.40625	26752.0	3853.4798534798533	2630.0	0.0	0.0	
0.012534209289056953	0.9255074573381238	-0.07939097235818808	0.3703147578969268	0.2035623409669211	-111.0	-0.07633587786259542	-23.0	0.061068702290076333	99.0	0.5180722891566265	1235.0	9.783132530120483	2004.0	-0.13253012048192772	2058.0	0.42272727272727273	-465.0	-0.8127272727272727	-894.0	-0.15000000000000002	147.0	95.26867641353974	39898.0	0.9999803617639643	0.005800214115473286	-4.975482745838958E-4	0.002320786146985215	1.522816042384125E12	1.522816042395E12	27.351088732175242	26012.0	824.21875	27008.0	3846.1538461538457	2625.0	0.0	0.0	
0.01567322577900464	0.9256699547707539	-0.07989535656731282	0.3697997658652225	0.1984732824427481	-116.0	0.019083969465648856	-26.0	0.07633587786259542	97.0	0.5421686746987953	1235.0	9.783132530120483	2002.0	-0.18072289156626506	2062.0	0.4290909090909091	-472.0	-0.8063636363636364	-887.0	-0.15306122448979592	150.0	95.26867641353974	39898.0	0.9999692939063554	0.007254042850296544	-6.261025726200006E-4	0.002897947949796314	1.5228160423919375E12	1.522816042433E12	27.351088732175242	26012.0	832.03125	27264.0	3853.4798534798533	2630.0	0.0	0.0	
0.018774648560156943	0.9257579803929166	-0.07987364642079019	0.36958403962222636	-0.3297709923664122	-124.0	0.13740458015267176	6.0	-0.061068702290076333	105.0	0.5421686746987953	1236.0	9.771084337349398	2002.0	-0.18072289156626506	2062.0	0.4318181818181818	-475.0	-0.8127272727272727	-894.0	-0.15408163265306124	151.0	95.27165530266888	39899.0	0.9999559393949903	0.00869026273182481	-7.497888081406985E-4	0.0034693542738277352	1.52281604239975E12	1.522816042435E12	27.351088732175242	26012.0	839.84375	27520.0	3854.945054945055	2631.0	0.0	0.0	
0.021884313491759396	0.9258655253046943	-0.0799469344066184	0.36929868227899865	-0.16793893129770993	-118.0	0.022900763358778626	-1.0	-0.15776081424936378	112.0	0.5301204819277109	1236.0	9.771084337349398	2003.0	-0.16867469879518074	2061.0	0.42272727272727273	-465.0	-0.8218181818181818	-904.0	-0.1510204081632653	148.0	95.27761308327432	39901.0	0.9999401352001829	0.010130763539938773	-8.747744311463671E-4	0.004040843430851679	1.5228160424075625E12	1.522816042435E12	27.351088732175242	26012.0	847.65625	27776.0	3850.5494505494503	2628.0	0.0	0.0	
0.024975094425483298	0.9259541427232665	-0.07957231384639007	0.3691573816725916	-0.46455834242093785	-129.0	0.18756815703380597	20.0	-0.11995637949836428	111.0	0.5301204819277109	1234.0	9.795180722891567	2003.0	-0.14457831325301207	2059.0	0.42363636363636364	-466.0	-0.8127272727272727	-894.0	-0.15306122448979592	150.0	95.27761308327432	39901.0	0.9999220315955045	0.011562595559009028	-9.936372010760745E-4	0.0046097504238701605	1.522816042415375E12	1.522816042438E12	27.351088732175242	26012.0	855.46875	28032.0	3846.1538461538457	2625.0	0.0	0.0	
0.028088087097057457	0.926273098233276	-0.079513628796203	0.3683690137961125	-0.10114503816793893	-113.0	-0.08015267175572519	0.0	-0.1965648854961832	117.0	0.5060240963855422	1236.0	9.771084337349398	2005.0	-0.10843373493975904	2056.0	0.4309090909090909	-474.0	-0.8127272727272727	-894.0	-0.15306122448979592	150.0	95.27463419258041	39900.0	0.9999013840412974	0.013008192107438681	-0.0011166561573615818	0.005173220410942749	1.5228160424231875E12	1.522816042439E12	27.351088732175242	26012.0	863.28125	28288.0	3846.1538461538457	2625.0	0.0	0.0	
0.031197885972451572	0.9263529325489174	-0.07934933564905348	0.3682036492059432	-0.2578456318914334	-118.0	0.0050890585241729555	11.0	0.10008481764206957	99.0	0.5180722891566265	1236.0	9.771084337349398	2004.0	-0.1566265060240964	2060.0	0.43272727272727274	-476.0	-0.8054545454545454	-886.0	-0.15408163265306124	151.0	95.26867641353974	39898.0	0.9998783389558379	0.014449540569371217	-0.0012377155664189644	0.005743354805767676	1.522816042431E12	1.522816042439E12	27.351088732175242	26012.0	871.09375	28544.0	3847.6190476190473	2626.0	0.0	0.0	
0.03429879881905012	0.9264033999293357	-0.07898145546166727	0.3681557690611164	-0.33893129770992364	-125.0	0.11145038167938927	18.0	-0.016793893129770907	106.0	0.5180722891566265	1236.0	9.771084337349398	2004.0	-0.16867469879518074	2061.0	0.4254545454545455	-468.0	-0.8209090909090909	-903.0	-0.15204081632653063	149.0	95.26867641353974	39898.0	0.999852952653908	0.01588648318552859	-0.0013544181338886075	0.006313340857007757	1.5228160424388125E12	1.522816042446E12	27.351088732175242	26012.0	878.90625	28800.0	3850.5494505494503	2628.0	0.0	0.0	
0.03737960199605822	0.9266104425604764	-0.07853260191705606	0.36773049665935836	-0.5523941707147814	-128.0	0.14712005551700214	34.0	-0.2595419847328244	122.0	0.5060240963855422	1235.0	9.783132530120483	2005.0	-0.13253012048192772	2058.0	0.42363636363636364	-466.0	-0.8136363636363636	-895.0	-0.15306122448979592	150.0	95.27165530266888	39899.0	0.9998253507532904	0.017317156560934324	-0.001467673253041751	0.006872409688459373	1.522816042446625E12	1.52281604246E12	27.351088732175242	26012.0	886.71875	29056.0	3847.6190476190473	2626.0	0.0	0.0	
0.04046574062005009	0.9268248032865568	-0.07807112990837055	0.3672882828075813	-0.49109414758269715	-122.0	0.04325699745547067	33.0	-0.2073791348600508	120.0	0.46987951807228917	1235.0	9.783132530120483	2008.0	-0.10843373493975904	2056.0	0.42454545454545456	-467.0	-0.8154545454545454	-897.0	-0.15612244897959185	153.0	95.27761308327432	39901.0	0.9997953224620391	0.01875104663424434	-0.0015794952751684067	0.0074307891790495574	1.5228160424544375E12	1.522816042466E12	27.351088732175242	26012.0	894.53125	29312.0	3835.8974358974356	2618.0	0.0	0.0	
0.04355868129404774	0.9270581055718049	-0.07723960438802462	0.36687506375772216	-0.40751614797416325	-131.0	0.17733411626541393	30.0	-0.09982384028185547	114.0	0.45783132530120485	1236.0	9.771084337349398	2009.0	-0.0963855421686747	2055.0	0.43454545454545457	-478.0	-0.8090909090909091	-890.0	-0.15306122448979592	150.0	95.27761308327432	39901.0	0.9997628395352643	0.02018911810920128	-0.0016820946673412455	0.007989665317641415	1.52281604246225E12	1.522816042472E12	27.351088732175242	26012.0	902.34375	29568.0	3854.945054945055	2631.0	0.0	0.0	
0.04665015673721498	0.9271941061924629	-0.0764638894047112	0.36669382740773226	-0.4394765539803707	-127.0	0.10359869138495102	34.0	-0.0774263904034896	113.0	0.43373493975903615	1235.0	9.783132530120483	2011.0	-0.0963855421686747	2055.0	0.4263636363636364	-469.0	-0.82	-902.0	-0.1510204081632653	148.0	95.27165530266888	39899.0	0.9997279826926797	0.021624914192835208	-0.0017833644931346117	0.008552386711449303	1.5228160424700625E12	1.52281604248E12	27.351088732175242	26012.0	910.15625	29824.0	3853.4798534798533	2630.0	0.0	0.0	
0.049740156239747785	0.9275002012967615	-0.07553491291653112	0.36611180467895404	-0.3643765903307888	-134.0	0.20356234096692105	31.0	-0.2860050890585242	127.0	0.4096385542168675	1234.0	9.795180722891567	2013.0	-0.08433734939759037	2054.0	0.42363636363636364	-466.0	-0.8127272727272727	-894.0	-0.15510204081632656	152.0	95.27761308327432	39901.0	0.9996907555471588	0.023064624632572844	-0.001878365536350371	0.009104290583083225	1.522816042477875E12	1.522816042486E12	27.351088732175242	26012.0	917.96875	30080.0	3846.1538461538457	2625.0	0.0	0.0	
0.052825489136589625	0.9276954554431213	-0.0742647946866337	0.3658768675668703	-0.5400763358778625	-136.0	0.2213740458015267	44.0	0.006679389312977099	109.0	0.3373493975903615	1234.0	9.795180722891567	2019.0	-0.024096385542168676	2049.0	0.42818181818181816	-471.0	-0.8036363636363636	-884.0	-0.15408163265306124	151.0	95.27761308327432	39901.0	0.999651203740543	0.024500134185919897	-0.0019613089882425036	0.009662688653175112	1.5228160424856875E12	1.522816042503E12	27.351088732175242	26012.0	925.78125	30336.0	3849.0842490842488	2627.0	0.0	0.0	
0.055923664850080074	0.9279051218942668	-0.07299414539198384	0.36560079253278815	-0.32510103277952407	-141.0	0.2846879209699146	32.0	0.006286484059272487	109.0	0.3373493975903615	1235.0	9.783132530120483	2019.0	0.03614457831325302	2044.0	0.4290909090909091	-472.0	-0.8109090909090909	-892.0	-0.15306122448979592	150.0	95.27165530266888	39899.0	0.9996090934343627	0.025942546625489893	-0.0020407841012382165	0.010221535998460271	1.5228160424935E12	1.522816042504E12	27.351088732175242	26012.0	933.59375	30592.0	3854.945054945055	2631.0	0.0	0.0	
0.05902437561552118	0.9281470391479618	-0.07186391699405205	0.3652104203816086	-0.23070398642917722	-122.0	-0.021204410517387567	27.0	-0.16200169635284142	120.0	0.26506024096385544	1235.0	9.783132530120483	2025.0	0.07228915662650603	2041.0	0.4209090909090909	-463.0	-0.8190909090909091	-901.0	-0.15204081632653063	149.0	95.27761308327432	39901.0	0.9995645469922904	0.027387673691696965	-0.0021205535608313595	0.010776594009717514	1.5228160425013125E12	1.522816042507E12	27.351088732175242	26012.0	941.40625	30848.0	3822.7106227106224	2609.0	0.0	0.0	
0.062131972740568656	0.9284201688453653	-0.07072571342545747	0.36473807525637697	-0.11169144234632371	-133.0	0.14785054238650067	20.0	-0.13820811570912014	119.0	0.28915662650602414	1235.0	9.783132530120483	2023.0	0.10843373493975904	2038.0	0.42363636363636364	-466.0	-0.8118181818181818	-893.0	-0.15306122448979592	150.0	95.27761308327432	39901.0	0.9995174910528948	0.028837649274621346	-0.00219681065416452	0.01132912558806736	1.522816042509125E12	1.52281604252E12	27.351088732175242	26012.0	949.21875	31104.0	3846.1538461538457	2625.0	0.0	0.0	
0.06523903656846043	0.9285500593408295	-0.069873984416431	0.3645715479844482	-0.2740458015267176	-118.0	-0.08854961832061065	31.0	0.23511450381679397	95.0	0.27710843373493976	1235.0	9.783132530120483	2024.0	0.13253012048192772	2036.0	0.4290909090909091	-472.0	-0.8072727272727273	-888.0	-0.15510204081632656	152.0	95.27165530266888	39899.0	0.9994680306853696	0.030283484534064698	-0.002278851533228718	0.011890039447937387	1.5228160425169375E12	1.522816042522E12	27.351088732175242	26012.0	957.03125	31360.0	3852.014652014652	2629.0	0.0	0.0	
0.06835340204527061	0.9287307993578825	-0.0691731692031908	0.3642446636349266	-0.09305707015630674	-125.0	0.022537259178480634	20.0	0.10178117048346062	103.0	0.3373493975903615	1237.0	9.759036144578314	2019.0	0.16867469879518074	2033.0	0.4290909090909091	-472.0	-0.8072727272727273	-888.0	-0.15306122448979592	150.0	95.26569752519298	39897.0	0.9994160333986224	0.03173477606708472	-0.002363650517492865	0.012446257669151225	1.52281604252475E12	1.522816042536E12	27.351088732175242	26012.0	964.84375	31616.0	3857.8754578754574	2633.0	0.0	0.0	
0.07147916414220172	0.9288250204018992	-0.06886685794724742	0.3640624085948603	0.03331020124913252	-119.0	-0.07009021512838311	12.0	0.23455933379597496	94.0	0.4096385542168675	1236.0	9.771084337349398	2013.0	0.12048192771084337	2037.0	0.4263636363636364	-469.0	-0.8190909090909091	-901.0	-0.15204081632653063	149.0	95.26569752519298	39897.0	0.9993614091146544	0.033188751563194556	-0.0024607487838344756	0.013008668551074206	1.5228160425325625E12	1.522816042539E12	27.351088732175242	26012.0	972.65625	31872.0	3819.7802197802193	2607.0	0.0	0.0	
0.07460318407510229	0.9290457629668109	-0.06848971450446054	0.3635699785742466	0.1081978094922005	-115.0	-0.1281115167607037	7.0	-0.004646531695984022	109.0	0.3855421686746988	1236.0	9.771084337349398	2015.0	0.012048192771084338	2046.0	0.43454545454545457	-478.0	-0.8145454545454546	-896.0	-0.15204081632653063	149.0	95.27165530266888	39899.0	0.9993043762794225	0.034646850074772216	-0.0025541829742834394	0.013558594249570961	1.522816042540375E12	1.522816042583E12	27.351088732175242	26012.0	980.46875	32128.0	3846.1538461538457	2625.0	0.0	0.0	
0.07771151177875414	0.9292727864699969	-0.06810716890574038	0.3630612921665524	-0.09478371501272256	-112.0	-0.16857506361323163	20.0	-0.09605597964376597	115.0	0.3614457831325301	1235.0	9.783132530120483	2017.0	-0.04819277108433735	2051.0	0.4263636363636364	-469.0	-0.8045454545454546	-885.0	-0.15204081632653063	149.0	95.27165530266888	39899.0	0.9992452100875507	0.036098511538630314	-0.002645689681655917	0.014103471483642195	1.5228160425481875E12	1.522816042584E12	27.351088732175242	26012.0	988.28125	32384.0	3856.4102564102564	2632.0	0.0	0.0	
0.08082238632208123	0.9294188908848443	-0.06790260233735779	0.3627254634876927	-0.15206106870229003	-107.0	-0.23816793893129762	24.0	0.16732824427480905	98.0	0.3855421686746988	1235.0	9.783132530120483	2015.0	-0.024096385542168676	2049.0	0.42818181818181816	-471.0	-0.8063636363636364	-887.0	-0.15612244897959185	153.0	95.27165530266888	39899.0	0.9991835788484255	0.037548704470005724	-0.002743278378474095	0.014654179472593414	1.522816042556E12	1.522816042586E12	27.351088732175242	26012.0	996.09375	32640.0	3847.6190476190473	2626.0	0.0	0.0	
0.08393825353409981	0.9295090513934632	-0.06758473415054132	0.36255375751405167	-0.08514386376981802	-117.0	-0.07633587786259542	20.0	0.2524955960070463	92.0	0.39759036144578314	1236.0	9.771084337349398	2014.0	0.03614457831325302	2044.0	0.42454545454545456	-467.0	-0.8190909090909091	-901.0	-0.15204081632653063	149.0	95.27165530266888	39899.0	0.9991194254648132	0.038999231931959484	-0.0028356396511098245	0.01521159805372212	1.5228160425638125E12	1.522816042587E12	27.351088732175242	26012.0	1003.90625	32896.0	3846.1538461538457	2625.0	0.0	0.0	
0.08706830515497158	0.9296906793582884	-0.06745233860242614	0.3621124448721633	0.22335312411648292	-110.0	-0.18037885213457724	0.0	0.04467062482329655	105.0	0.43373493975903615	1236.0	9.771084337349398	2011.0	0.03614457831325302	2044.0	0.42272727272727273	-465.0	-0.8127272727272727	-894.0	-0.15306122448979592	150.0	95.27165530266888	39899.0	0.9990525384313965	0.04046051278001698	-0.002935552941059142	0.015759279434388082	1.522816042571625E12	1.522816042588E12	27.351088732175242	26012.0	1011.71875	33152.0	3840.29304029304	2621.0	0.0	0.0	
0.09020249313471997	0.9298166661614423	-0.06740211746725829	0.36179817839421347	0.21537622682660848	-107.0	-0.2197382769901853	0.0	0.25681570338058884	91.0	0.46987951807228917	1235.0	9.783132530120483	2008.0	-0.03614457831325302	2050.0	0.42818181818181816	-471.0	-0.8063636363636364	-887.0	-0.1489795918367347	146.0	95.27165530266888	39899.0	0.9989831111696005	0.04192167504614592	-0.0030388890291131354	0.016312017431935662	1.5228160425794375E12	1.522816042589E12	27.351088732175242	26012.0	1019.53125	33408.0	3857.8754578754574	2633.0	0.0	0.0	
0.09332113276916072	0.9300036651555598	-0.06752665364101341	0.36129397150428216	0.11634640694919716	-107.0	-0.21216109502500666	6.0	-0.08791787312450648	113.0	0.5301204819277109	1235.0	9.783132530120483	2003.0	-0.0963855421686747	2055.0	0.4263636363636364	-469.0	-0.8118181818181818	-893.0	-0.1510204081632653	148.0	95.26569752519298	39897.0	0.9989115932678624	0.04337875299206861	-0.003149688693091899	0.016852064711794686	1.52281604258725E12	1.522816042607E12	27.351088732175242	26012.0	1027.34375	33664.0	3857.8754578754574	2633.0	0.0	0.0	
0.0964239353758585	0.9301476879669662	-0.06774070041626523	0.3608829118658686	-0.13180661577608146	-108.0	-0.189821882951654	22.0	-0.05445292620865134	111.0	0.5662650602409639	1235.0	9.783132530120483	2000.0	-0.03614457831325302	2050.0	0.42818181818181816	-471.0	-0.8209090909090909	-903.0	-0.15408163265306124	151.0	95.27761308327432	39901.0	0.9988380281853323	0.044826879679763676	-0.003264647395533474	0.01739213576292691	1.5228160425950625E12	1.522816042613E12	27.351088732175242	26012.0	1035.15625	33920.0	3850.5494505494503	2628.0	0.0	0.0	
0.09952134751481133	0.9303209104468184	-0.06816365464446623	0.36035637884033245	-0.18862349175080032	-93.0	-0.41270622999261264	26.0	-0.12903225806451615	116.0	0.6024096385542169	1237.0	9.759036144578314	1997.0	0.07228915662650603	2041.0	0.4309090909090909	-474.0	-0.8009090909090909	-881.0	-0.15408163265306124	151.0	95.27761308327432	39901.0	0.9987621931189072	0.046274292976678684	-0.0033904697722684216	0.017924176983685883	1.522816042602875E12	1.522816042615E12	27.351088732175242	26012.0	1042.96875	34176.0	3837.362637362637	2619.0	0.0	0.0	
0.10263820171372569	0.9305177778839777	-0.06842406339516101	0.3597982943127975	0.16841603053435114	-102.0	-0.26240458015267176	3.0	-0.2013358778625954	121.0	0.6024096385542169	1237.0	9.759036144578314	1997.0	0.04819277108433735	2043.0	0.4254545454545455	-468.0	-0.8090909090909091	-890.0	-0.1510204081632653	148.0	95.27165530266888	39899.0	0.9986834639229564	0.047732377522691306	-0.0035099202865757793	0.01845642117146117	1.5228160426106875E12	1.522816042626E12	27.351088732175242	26012.0	1050.78125	34432.0	3850.5494505494503	2628.0	0.0	0.0	
0.10576273289743475	0.9307749562007429	-0.06870060517201053	0.35907966770399197	0.36178579690030077	-102.0	-0.25445292620865145	-10.0	-0.3479065463798287	131.0	0.6265060240963856	1236.0	9.771084337349398	1995.0	-0.03614457831325302	2050.0	0.4290909090909091	-472.0	-0.8081818181818182	-889.0	-0.15408163265306124	151.0	95.27761308327432	39901.0	0.9986021063471628	0.04919771432324976	-0.0036312888787673756	0.01897977464187207	1.5228160426185E12	1.522816042628E12	27.351088732175242	26012.0	1058.59375	34688.0	3859.340659340659	2634.0	0.0	0.0	
0.10887933287794463	0.9309720867626787	-0.06905663259061497	0.3584998677321989	0.21374045801526717	-99.0	-0.2927705433318365	-1.0	-0.2613381230354738	126.0	0.6506024096385542	1236.0	9.771084337349398	1993.0	-0.14457831325301207	2059.0	0.4254545454545455	-468.0	-0.8218181818181818	-904.0	-0.15510204081632656	152.0	95.27761308327432	39901.0	0.9985185272971473	0.050656779488654734	-0.0037575633674864196	0.019506974488969084	1.5228160426263125E12	1.52281604263E12	27.351088732175242	26012.0	1066.40625	34944.0	3857.8754578754574	2633.0	0.0	0.0	
0.11199697022166584	0.9312053938690664	-0.06958173185603074	0.3577916950140899	0.28396946564885495	-83.0	-0.528680479825518	-6.0	-0.40654307524536537	136.0	0.6987951807228916	1237.0	9.759036144578314	1989.0	-0.2530120481927711	2068.0	0.4354545454545454	-479.0	-0.8127272727272727	-894.0	-0.1510204081632653	148.0	95.27761308327432	39901.0	0.9984324945161492	0.05211884210731093	-0.003894435448972094	0.020025323073212874	1.522816042634125E12	1.522816042641E12	27.351088732175242	26012.0	1074.21875	35200.0	3838.8278388278386	2620.0	0.0	0.0	
0.11509741937037887	0.9314508655359336	-0.0701831295760126	0.35703447090608836	0.10814249363867677	-75.0	-0.6361323155216283	5.0	-0.6395250212044105	152.0	0.710843373493976	1235.0	9.783132530120483	1988.0	-0.42168674698795183	2082.0	0.42363636363636364	-466.0	-0.8109090909090909	-892.0	-0.1510204081632653	148.0	95.27165530266888	39899.0	0.9983445299720367	0.05357421235530842	-0.004036719516602749	0.02053553361774191	1.5228160426419375E12	1.522816042649E12	27.351088732175242	26012.0	1082.03125	35456.0	3854.945054945055	2631.0	0.0	0.0	
0.11817275214240802	0.9317154141820625	-0.07106501965954726	0.35616870996246364	-0.20012378791004745	-54.0	-0.939550237260161	25.0	-0.8817825459046833	169.0	0.7710843373493976	1236.0	9.771084337349398	1983.0	-0.4819277108433735	2087.0	0.43	-473.0	-0.8109090909090909	-892.0	-0.15510204081632656	152.0	95.27165530266888	39899.0	0.9982549078754686	0.055019660204547675	-0.0041965316604000704	0.021032475259443992	1.52281604264975E12	1.522816042665E12	27.351088732175242	26012.0	1089.84375	35712.0	3859.340659340659	2634.0	0.0	0.0	
0.12121878797787841	0.9319953369739802	-0.07201905607820451	0.3552435044027916	-0.5307352350341502	-29.0	-1.2965046203294495	47.0	-1.2707914825231015	196.0	0.7349397590361446	1236.0	9.771084337349398	1986.0	-0.4819277108433735	2087.0	0.42454545454545456	-467.0	-0.8209090909090909	-903.0	-0.15204081632653063	149.0	95.27463419258041	39900.0	0.9981638128859781	0.05645309436154502	-0.004362359345930707	0.02151791353429982	1.5228160426575625E12	1.522816042668E12	27.351088732175242	26012.0	1097.65625	35968.0	3853.4798534798533	2630.0	0.0	0.0	
0.12425278107273711	0.9322834609387817	-0.07307970852845125	0.3542695367390776	-0.715599921706792	-13.0	-1.5075357212761793	60.0	-1.284008612252887	199.0	0.7590361445783133	1236.0	9.771084337349398	1984.0	-0.44578313253012053	2084.0	0.4309090909090909	-474.0	-0.8036363636363636	-884.0	-0.15510204081632656	152.0	95.27463419258041	39900.0	0.9980707764360475	0.05788215509768802	-0.004537258463512969	0.021995332032672295	1.522816042665375E12	1.522816042677E12	27.351088732175242	26012.0	1105.46875	36224.0	3835.8974358974356	2618.0	0.0	0.0	
0.12726138643439583	0.9325913601870212	-0.07437885073799633	0.35318711962279664	-0.9725190839694656	32.0	-2.156870229007634	78.0	-1.7709923664122136	233.0	0.7349397590361446	1238.0	9.74698795180723	1986.0	-0.3855421686746988	2079.0	0.42454545454545456	-467.0	-0.8145454545454546	-896.0	-0.1510204081632653	148.0	95.27463419258041	39900.0	0.997976250402701	0.05930139859876936	-0.004729584749796265	0.022458378937268417	1.5228160426731875E12	1.522816042678E12	27.351088732175242	26012.0	1113.28125	36480.0	3850.5494505494503	2628.0	0.0	0.0	
0.13026597421414535	0.9328668880341437	-0.07576280993560693	0.35216383380477456	-1.0709365108918263	55.0	-2.455408676224167	86.0	-1.7125302550735428	232.0	0.7349397590361446	1237.0	9.759036144578314	1986.0	-0.3493975903614458	2076.0	0.42454545454545456	-467.0	-0.8145454545454546	-896.0	-0.1510204081632653	148.0	95.27463419258041	39900.0	0.9978795967709003	0.06071745539602624	-0.004931169807770536	0.022921267916578017	1.522816042681E12	1.522816042685E12	27.351088732175242	26012.0	1121.09375	36736.0	3854.945054945055	2631.0	0.0	0.0	
0.13326076933455422	0.9332408804019738	-0.07695356141315243	0.35091253686984225	-1.045438022537259	75.0	-2.7022900763358777	86.0	-2.2061068702290076	267.0	0.6144578313253012	1235.0	9.783132530120483	1996.0	-0.3373493975903615	2075.0	0.4263636363636364	-469.0	-0.8218181818181818	-904.0	-0.15408163265306124	151.0	95.27165530266888	39899.0	0.9977810170530459	0.06213619829457587	-0.005123652265835041	0.0233641404195725	1.5228160426888125E12	1.522816042696E12	27.351088732175242	26012.0	1128.90625	36992.0	3854.945054945055	2631.0	0.0	0.0	
0.13623301331021842	0.9335936905171186	-0.07818175146560999	0.3497004929426769	-1.3875377241256879	101.0	-3.0363926859577486	110.0	-2.2769394638736022	275.0	0.5783132530120483	1236.0	9.771084337349398	1999.0	-0.3132530120481928	2073.0	0.42818181818181816	-471.0	-0.8209090909090909	-903.0	-0.15306122448979592	150.0	95.27165530266888	39899.0	0.9976809676337761	0.0635439750451626	-0.0053213505131617335	0.02380195969889437	1.522816042696625E12	1.5228160427E12	27.351088732175242	26012.0	1136.71875	37248.0	3838.8278388278386	2620.0	0.0	0.0	
0.13918957584448283	0.9339944663555784	-0.07950758599818415	0.3483286961849531	-1.5239417071478139	142.0	-3.593337959750173	121.0	-2.6526717557251906	303.0	0.5180722891566265	1236.0	9.771084337349398	2004.0	-0.26506024096385544	2069.0	0.42454545454545456	-467.0	-0.8109090909090909	-892.0	-0.15408163265306124	151.0	95.27463419258041	39900.0	0.9975792600416441	0.06494868804597563	-0.005528847960346163	0.02422229749845757	1.5228160427044375E12	1.522816042735E12	27.351088732175242	26012.0	1144.53125	37504.0	3849.0842490842488	2627.0	0.0	0.0	
0.1421181765729525	0.9344994114176994	-0.0794670804300488	0.34698102712965057	-1.7038167938931297	56.0	-2.200508905852417	135.0	-2.853265479219677	320.0	0.18072289156626506	1235.0	9.783132530120483	2032.0	-0.13253012048192772	2058.0	0.4263636363636364	-469.0	-0.8118181818181818	-893.0	-0.15408163265306124	151.0	95.27165530266888	39899.0	0.997476365156325	0.06634880639099487	-0.005642107281707233	0.02463541090459128	1.52281604271225E12	1.522816042737E12	27.351088732175242	26012.0	1152.34375	37760.0	3853.4798534798533	2630.0	0.0	0.0	
0.1450717087711321	0.9349450458247323	-0.07817954531708642	0.34607184222613396	-1.4835711915034848	-5.0	-1.2213740458015268	123.0	-1.7836043810155993	254.0	-0.24096385542168675	1236.0	9.771084337349398	2067.0	-0.07228915662650603	2053.0	0.4309090909090909	-474.0	-0.8054545454545454	-886.0	-0.15510204081632656	152.0	95.27165530266888	39899.0	0.9973704281644153	0.06775758401779353	-0.00566584863351254	0.025080609850330903	1.5228160427200625E12	1.522816042739E12	27.351088732175242	26012.0	1160.15625	38016.0	3853.4798534798533	2630.0	0.0	0.0	
0.14808728156452594	0.935147085782489	-0.07666037582922423	0.34586574668538556	-1.0397921065453957	-107.0	0.36186454442098454	96.0	-0.17313626766282272	151.0	-0.012048192771084338	1233.0	9.807228915662652	2048.0	-0.20481927710843376	2064.0	0.42727272727272725	-470.0	-0.8181818181818182	-900.0	-0.15714285714285717	154.0	95.27761308327432	39901.0	0.9972600217916603	0.06917844309388009	-0.005671028148924757	0.025585765318593398	1.522816042727875E12	1.522816042741E12	27.351088732175242	26012.0	1167.96875	38272.0	3846.1538461538457	2625.0	0.0	0.0	
0.15110739237845588	0.9351516058668368	-0.07535798146944361	0.3461396375359869	-1.29293893129771	-176.0	1.407760814249364	114.0	0.7770356234096689	89.0	0.3373493975903615	1235.0	9.783132530120483	2019.0	-0.1566265060240964	2060.0	0.4263636363636364	-469.0	-0.8127272727272727	-894.0	-0.15408163265306124	151.0	95.27165530266888	39899.0	0.9971471769621447	0.07058695959473019	-0.005688158753888187	0.026127255148366234	1.5228160427356875E12	1.522816042749E12	27.351088732175242	26012.0	1175.78125	38528.0	3857.8754578754574	2633.0	0.0	0.0	
0.1540747948918229	0.9352489242447136	-0.07420331237003495	0.34612615927205975	-1.8161707431064027	-169.0	1.272160772706029	150.0	-0.03271537622682698	141.0	0.3614457831325301	1234.0	9.795180722891567	2017.0	0.04819277108433735	2043.0	0.43	-473.0	-0.8109090909090909	-892.0	-0.15714285714285717	154.0	95.27165530266888	39899.0	0.9970340869647344	0.07197789849616078	-0.005710777470460668	0.02663829159607944	1.5228160427435E12	1.52281604275E12	27.351088732175242	26012.0	1183.59375	38784.0	3857.8754578754574	2633.0	0.0	0.0	
0.15705036757227353	0.9353368950926139	-0.07375640851981136	0.3459839373161363	-1.7187786259541982	-73.0	-0.21893129770992348	146.0	-0.23053435114503806	154.0	0.3855421686746988	1237.0	9.759036144578314	2015.0	0.1927710843373494	2031.0	0.4309090909090909	-474.0	-0.8190909090909091	-901.0	-0.15612244897959185	153.0	95.26867641353974	39898.0	0.9969184816833264	0.0733720428052444	-0.005785785198327761	0.02714053983316135	1.5228160427513125E12	1.522816042754E12	27.351088732175242	26012.0	1191.40625	39040.0	3822.7106227106224	2609.0	0.0	0.0	
0.16005602224522858	0.9355783459138863	-0.07333485580238966	0.3454202622625335	-0.967519832360425	-40.0	-0.7184553210597221	99.0	-1.0046400239485112	205.0	0.30120481927710846	1234.0	9.795180722891567	2022.0	0.20481927710843376	2030.0	0.43	-473.0	-0.8181818181818182	-900.0	-0.15510204081632656	152.0	95.27463419258041	39900.0	0.9967994674112715	0.07479257995191767	-0.005862580178151569	0.027613799202510433	1.522816042759125E12	1.522816042772E12	27.351088732175242	26012.0	1199.21875	39296.0	3847.6190476190473	2626.0	0.0	0.0	
0.16304193410215082	0.9358396394774262	-0.07248196400857013	0.34489206148622337	-1.2542571931884907	-41.0	-0.6893716970052844	119.0	-0.8479154433352908	196.0	0.03614457831325302	1233.0	9.807228915662652	2044.0	0.07228915662650603	2041.0	0.43454545454545457	-478.0	-0.8109090909090909	-892.0	-0.15714285714285717	154.0	95.27463419258041	39900.0	0.9966790057622676	0.0762060802071706	-0.00590225732038313	0.02808480319888131	1.5228160427669375E12	1.522816042784E12	27.351088732175242	26012.0	1207.03125	39552.0	3847.6190476190473	2626.0	0.0	0.0	
0.16604171040908555	0.9360085043512822	-0.07142282857789505	0.344654695804398	-1.276393489845888	-53.0	-0.4931585769840125	122.0	-0.022756733400547697	143.0	-0.07228915662650603	1234.0	9.795180722891567	2053.0	0.12048192771084337	2037.0	0.4318181818181818	-475.0	-0.8045454545454546	-885.0	-0.15918367346938778	156.0	95.27463419258041	39900.0	0.996555747764087	0.07761899043011931	-0.005922775083888684	0.028580669311202508	1.52281604277475E12	1.522816042792E12	27.351088732175242	26012.0	1214.84375	39808.0	3854.945054945055	2631.0	0.0	0.0	
0.16906991231050508	0.9360603450902589	-0.07040034129372315	0.3447242699539029	-1.0695504664970317	-87.0	0.03505795872208077	110.0	0.6799547639242296	97.0	0.060240963855421686	1234.0	9.795180722891567	2042.0	0.13253012048192772	2036.0	0.4263636363636364	-469.0	-0.8163636363636364	-898.0	-0.15510204081632656	152.0	95.27463419258041	39900.0	0.9964290479031961	0.07903560818952915	-0.005944204153166338	0.029106555444212326	1.5228160427825625E12	1.522816042797E12	27.351088732175242	26012.0	1222.65625	40064.0	3856.4102564102564	2632.0	0.0	0.0	
0.1721113148755839	0.9361106991525742	-0.06965024156905045	0.34473990598927584	-0.8821651630811939	-107.0	0.3397640527411519	99.0	0.7286606523247743	93.0	0.30120481927710846	1236.0	9.771084337349398	2022.0	0.08433734939759037	2040.0	0.43363636363636365	-477.0	-0.8081818181818182	-889.0	-0.15918367346938778	156.0	95.27463419258041	39900.0	0.9962994964540697	0.08045822919289022	-0.0059864021472843575	0.02963021616260769	1.522816042790375E12	1.522816042804E12	27.351088732175242	26012.0	1230.46875	40320.0	3847.6190476190473	2626.0	0.0	0.0	
0.17514457651197513	0.9361915413564453	-0.0689661715565185	0.3446578957074383	-0.866412213740458	-102.0	0.2573609596510356	99.0	0.3645038167938931	116.0	0.3132530120481928	1234.0	9.795180722891567	2021.0	0.024096385542168676	2045.0	0.42363636363636364	-466.0	-0.8118181818181818	-893.0	-0.15510204081632656	152.0	95.26569752519298	39897.0	0.9961679970432255	0.08187968721205419	-0.006031808989727448	0.030143917616261805	1.5228160427981875E12	1.522816042806E12	27.351088732175242	26012.0	1238.28125	40576.0	3843.223443223443	2623.0	0.0	0.0	
0.17816524649527904	0.936304101498077	-0.06844308569526684	0.3444563448949428	-1.0038837551895003	-64.0	-0.3273068166599707	109.0	0.17490290612026269	128.0	0.26506024096385544	1233.0	9.807228915662652	2025.0	0.10843373493975904	2038.0	0.42818181818181816	-471.0	-0.8045454545454546	-885.0	-0.15816326530612246	155.0	95.26569752519298	39897.0	0.9960347664050255	0.08329815171805391	-0.0060890286896898875	0.0306445062361656	1.522816042806E12	1.522816042812E12	27.351088732175242	26012.0	1246.09375	40832.0	3846.1538461538457	2625.0	0.0	0.0	
0.18116551743944276	0.9364464210339131	-0.06775476255910448	0.3442054512690626	-1.200315872598052	-57.0	-0.4285338246907079	123.0	-0.0418531192419053	142.0	0.12048192771084337	1234.0	9.795180722891567	2037.0	0.27710843373493976	2024.0	0.4309090909090909	-474.0	-0.8127272727272727	-894.0	-0.15918367346938778	156.0	95.26569752519298	39897.0	0.9959001863900815	0.08470994503513668	-0.006129023597435078	0.03113645821359894	1.5228160428138125E12	1.522816042823E12	27.351088732175242	26012.0	1253.90625	41088.0	3857.8754578754574	2633.0	0.0	0.0	
0.18420461497850615	0.936523140702439	-0.06731168853651973	0.34408362866495523	-0.8440936731789364	6.0	-1.3831026005951612	101.0	0.5695432785612623	102.0	0.04819277108433735	1234.0	9.795180722891567	2043.0	0.3614457831325301	2017.0	0.42818181818181816	-471.0	-0.8036363636363636	-884.0	-0.15408163265306124	151.0	95.27165530266888	39899.0	0.9957615799003448	0.08613404483406598	-0.006190800575320131	0.03164611039495073	1.522816042821625E12	1.522816042841E12	27.351088732175242	26012.0	1261.71875	41344.0	3846.1538461538457	2625.0	0.0	0.0	
0.1872510081536608	0.9365537976357491	-0.06711389571104685	0.34403881922910895	-0.8452926208651401	11.0	-1.4363867684478373	102.0	0.8501272264631039	83.0	0.20481927710843376	1235.0	9.783132530120483	2030.0	0.3855421686746988	2015.0	0.4390909090909091	-483.0	-0.8127272727272727	-894.0	-0.15612244897959185	153.0	95.27165530266888	39899.0	0.9956203331457808	0.08755727315145886	-0.006274396317504558	0.032163769925434814	1.5228160428294375E12	1.522816042849E12	27.351088732175242	26012.0	1269.53125	41600.0	3834.432234432234	2617.0	0.0	0.0	
0.19031406958954183	0.9365464961372555	-0.06724833464926792	0.3440324433246392	-0.6482292579151542	11.0	-1.412839444374922	90.0	0.9888624702790642	73.0	0.43373493975903615	1235.0	9.783132530120483	2011.0	0.39759036144578314	2014.0	0.4263636363636364	-469.0	-0.8072727272727273	-888.0	-0.15714285714285717	154.0	95.27165530266888	39899.0	0.9954759846049311	0.08898455505289023	-0.006389499252299774	0.03268772454893166	1.52281604283725E12	1.522816042884E12	27.351088732175242	26012.0	1277.34375	41856.0	3844.688644688644	2624.0	0.0	0.0	
0.19338021909555245	0.9365542549096374	-0.06755702615535875	0.343950833445235	-0.5003693671509483	14.0	-1.4358532381186901	81.0	0.7439054420093572	88.0	0.5662650602409639	1235.0	9.783132530120483	2000.0	0.49397590361445787	2006.0	0.4254545454545455	-468.0	-0.8145454545454546	-896.0	-0.15816326530612246	155.0	95.27165530266888	39899.0	0.9953291520304475	0.09041449917617901	-0.006521922946426767	0.03320484871448346	1.5228160428450625E12	1.522816042886E12	27.351088732175242	26012.0	1285.15625	42112.0	3853.4798534798533	2630.0	0.0	0.0	
0.19643983736958215	0.9365850131943557	-0.06802592880547403	0.3437746152203486	-0.5076941718163097	44.0	-1.8710771840542828	82.0	0.45728825881497653	106.0	0.6024096385542169	1236.0	9.771084337349398	1997.0	0.5180722891566265	2004.0	0.43	-473.0	-0.8190909090909091	-901.0	-0.15510204081632656	152.0	95.27165530266888	39899.0	0.9951803003545765	0.09184346614433105	-0.006670763466386716	0.03371125075617513	1.522816042852875E12	1.522816042887E12	27.351088732175242	26012.0	1292.96875	42368.0	3846.1538461538457	2625.0	0.0	0.0	
0.19953999129168243	0.9366507247975169	-0.06853379797301988	0.3434945971506418	0.11092557251908397	61.0	-2.1013835877862594	42.0	0.5264790076335878	101.0	0.5903614457831325	1236.0	9.771084337349398	1998.0	0.3855421686746988	2015.0	0.4254545454545455	-468.0	-0.8127272727272727	-894.0	-0.16020408163265307	157.0	95.27165530266888	39899.0	0.9950271010794861	0.09329468211610055	-0.006826278704352844	0.034213627771114814	1.5228160428606875E12	1.522816042889E12	27.351088732175242	26012.0	1300.78125	42624.0	3844.688644688644	2624.0	0.0	0.0	
0.20264263230422916	0.9367500457162712	-0.06899438518060373	0.34313135482508983	0.21608925425719286	92.0	-2.5423370522607156	35.0	0.35044039929536097	112.0	0.4819277108433735	1235.0	9.783132530120483	2007.0	0.30120481927710846	2022.0	0.4263636363636364	-469.0	-0.8090909090909091	-890.0	-0.15408163265306124	151.0	95.27165530266888	39899.0	0.9948713852334674	0.09475043501992508	-0.0069786471211708044	0.03470706544112721	1.5228160428685E12	1.52281604289E12	27.351088732175242	26012.0	1308.59375	42880.0	3832.9670329670325	2616.0	0.0	0.0	
0.20573760786377132	0.9368585633825915	-0.06953878938814864	0.342724946549224	0.060143418922044306	150.0	-3.3893129770992365	45.0	0.4061993985658106	108.0	0.3373493975903615	1234.0	9.795180722891567	2019.0	0.22891566265060243	2028.0	0.43272727272727274	-476.0	-0.8190909090909091	-901.0	-0.16020408163265307	157.0	95.27761308327432	39901.0	0.9947136687154242	0.09620363916010422	-0.007140762611779577	0.03519355896149587	1.5228160428763125E12	1.522816042892E12	27.351088732175242	26012.0	1316.40625	43136.0	3857.8754578754574	2633.0	0.0	0.0	
0.20885117619985807	0.9368673670081568	-0.07142141820136244	0.3423134786380713	0.08978010709809758	300.0	-5.628802552124872	43.0	0.5986100034180243	95.0	0.8433734939759037	1235.0	9.783132530120483	1977.0	0.08433734939759037	2040.0	0.43454545454545457	-478.0	-0.8154545454545454	-897.0	-0.15816326530612246	155.0	95.27761308327432	39901.0	0.9945526011642507	0.09765521618545599	-0.007444676034558887	0.03568135462584138	1.522816042884125E12	1.522816042899E12	27.351088732175242	26012.0	1324.21875	43392.0	3846.1538461538457	2625.0	0.0	0.0	
0.21193282904963814	0.9369692612753949	-0.07205183782973747	0.34190223177158097	0.012123933542883165	107.0	-2.599461158509205	48.0	0.14705882352941166	124.0	0.6626506024096386	1236.0	9.771084337349398	1992.0	0.20481927710843376	2030.0	0.4254545454545455	-468.0	-0.8118181818181818	-893.0	-0.15714285714285717	154.0	95.27761308327432	39901.0	0.9943908111873765	0.09910156327109206	-0.0076207940437263335	0.0361623876628755	1.5228160428919375E12	1.522816042905E12	27.351088732175242	26012.0	1332.03125	43648.0	3854.945054945055	2631.0	0.0	0.0	
0.21501458147591332	0.9371679509562998	-0.07181855139794759	0.34140639621349306	0.2563987427031885	17.0	-1.225415356982488	32.0	-0.03614728334081734	136.0	0.3614457831325301	1236.0	9.771084337349398	2017.0	0.18072289156626506	2032.0	0.4354545454545454	-479.0	-0.8027272727272727	-883.0	-0.15714285714285717	154.0	95.28059197475062	39902.0	0.9942266550396377	0.10055841988103904	-0.007706153458783353	0.03663301514469917	1.52281604289975E12	1.522816042913E12	27.351088732175242	26012.0	1339.84375	43904.0	3843.223443223443	2623.0	0.0	0.0	
0.21810194870261368	0.9373222755151878	-0.07218552385406334	0.3409049749841943	0.18006286484059308	118.0	-2.767400089806915	37.0	0.1165244723843735	126.0	0.45783132530120485	1234.0	9.795180722891567	2009.0	0.13253012048192772	2036.0	0.4318181818181818	-475.0	-0.7963636363636364	-876.0	-0.15612244897959185	153.0	95.28059197475062	39902.0	0.9940598327611345	0.10201343396772737	-0.007856308724835143	0.037102379899917735	1.5228160429075625E12	1.522816042919E12	27.351088732175242	26012.0	1347.65625	44160.0	3854.945054945055	2631.0	0.0	0.0	
0.22118218712707796	0.9375477803792805	-0.07229550838469882	0.3402609571685873	0.3327346205657839	96.0	-2.4315222272114956	27.0	-0.4178266726537944	161.0	0.3493975903614458	1236.0	9.771084337349398	2018.0	0.21686746987951808	2029.0	0.4290909090909091	-472.0	-0.8018181818181818	-882.0	-0.15816326530612246	155.0	95.28059197475062	39902.0	0.9938910350734833	0.1034732133296902	-0.007978951812826101	0.03755317365758855	1.522816042915375E12	1.52281604293E12	27.351088732175242	26012.0	1355.46875	44416.0	3846.1538461538457	2625.0	0.0	0.0	
0.22427386776847832	0.9377375652483325	-0.07264147627838193	0.33966376704949963	0.4548720251459366	110.0	-2.6452626852267627	19.0	-0.3109564436461608	154.0	0.5180722891566265	1235.0	9.783132530120483	2004.0	0.26506024096385544	2025.0	0.43636363636363634	-480.0	-0.81	-891.0	-0.15510204081632656	152.0	95.27463419258041	39900.0	0.993719239721774	0.10493477188796588	-0.008128731348048816	0.03800907762984576	1.5228160429231875E12	1.522816042931E12	27.351088732175242	26012.0	1363.28125	44672.0	3843.223443223443	2623.0	0.0	0.0	
0.22740549397589319	0.9380341033352222	-0.07217047743557606	0.3389446019142557	1.5235743152222723	-62.0	-0.01930848675348014	-51.0	-0.9063762909744051	193.0	0.5301204819277109	1236.0	9.771084337349398	2003.0	0.5542168674698795	2001.0	0.4290909090909091	-472.0	-0.8090909090909091	-890.0	-0.15714285714285717	154.0	95.27463419258041	39900.0	0.99354280388488	0.10642738683516553	-0.008188311376745047	0.03845594540258244	1.522816042931E12	1.522816042941E12	27.351088732175242	26012.0	1371.09375	44928.0	3857.8754578754574	2633.0	0.0	0.0	
0.23052260406752717	0.9384203149678352	-0.071039715756135	0.33811339997249323	1.447238437359677	-27.0	-0.553659631791648	-46.0	-0.8453075886843288	189.0	-0.1927710843373494	1231.0	9.831325301204819	2063.0	0.14457831325301207	2035.0	0.4318181818181818	-475.0	-0.8045454545454546	-885.0	-0.16224489795918368	159.0	95.27761308327432	39901.0	0.9933647668576339	0.10792421124935557	-0.008170012059704903	0.03888515777295374	1.5228160429388125E12	1.522816042947E12	27.351088732175242	26012.0	1378.90625	45184.0	3849.0842490842488	2627.0	0.0	0.0	
0.23361239541963286	0.9386529780095121	-0.07039024882322267	0.33760302093502786	0.5922766052986084	59.0	-1.8666367310282894	10.0	0.08599012123933532	128.0	-0.16867469879518074	1233.0	9.807228915662652	2061.0	0.012048192771084338	2046.0	0.42727272727272725	-470.0	-0.8172727272727273	-899.0	-0.15612244897959185	153.0	95.26867641353974	39898.0	0.9931859088207403	0.10939133859593939	-0.008203333631564471	0.03934451521416406	1.522816042946625E12	1.522816042955E12	27.351088732175242	26012.0	1386.71875	45440.0	3846.1538461538457	2625.0	0.0	0.0	
0.2366918586222972	0.9387569602465533	-0.07035195065016758	0.33732176423758276	0.0731926358329595	121.0	-2.8132016165244726	44.0	0.7272114952851368	86.0	0.10843373493975904	1235.0	9.783132530120483	2038.0	0.4096385542168675	2013.0	0.4290909090909091	-472.0	-0.8190909090909091	-901.0	-0.15510204081632656	152.0	95.26867641353974	39898.0	0.9930052900797421	0.11083891095328995	-0.008306445569741706	0.039827536382916924	1.5228160429544375E12	1.522816042962E12	27.351088732175242	26012.0	1394.53125	45696.0	3847.6190476190473	2626.0	0.0	0.0	
0.239811858818426	0.9389055370529298	-0.07066092167355227	0.3368433265475222	0.8212842388863946	142.0	-3.1338123035473733	-5.0	0.26919622810956434	116.0	0.3855421686746988	1238.0	9.74698795180723	2015.0	0.710843373493976	1988.0	0.43727272727272726	-481.0	-0.8054545454545454	-886.0	-0.15918367346938778	156.0	95.27165530266888	39899.0	0.9928198928590949	0.11231076554635928	-0.00845237555236678	0.04029279877556182	1.52281604296225E12	1.522816042971E12	27.351088732175242	26012.0	1402.34375	45952.0	3856.4102564102564	2632.0	0.0	0.0	
0.24296848502942392	0.9390776981228277	-0.07081281493997667	0.3363311197742603	1.493039964077234	104.0	-2.553659631791648	-49.0	0.16232599910193074	123.0	0.4096385542168675	1238.0	9.74698795180723	2013.0	0.6144578313253012	1996.0	0.43	-473.0	-0.8181818181818182	-900.0	-0.15816326530612246	155.0	95.26569752519298	39897.0	0.9926298604049965	0.11380273530565606	-0.008581496558774123	0.0407585032369907	1.5228160429700625E12	1.522816042983E12	27.351088732175242	26012.0	1410.15625	46208.0	3849.0842490842488	2627.0	0.0	0.0	
0.24614080402059552	0.9393070946486889	-0.07051635184616141	0.33575232845793873	1.9205208801077684	48.0	-1.6986977997305794	-77.0	0.009654243376739906	133.0	0.22891566265060243	1235.0	9.783132530120483	2028.0	0.3614457831325301	2017.0	0.4254545454545455	-468.0	-0.8209090909090909	-903.0	-0.15816326530612246	155.0	95.26569752519298	39897.0	0.9924363920467207	0.1153093012217384	-0.008656584521091335	0.04121694235955545	1.522816042977875E12	1.522816042984E12	27.351088732175242	26012.0	1417.96875	46464.0	3847.6190476190473	2626.0	0.0	0.0	
0.24926780113301736	0.9395416963223227	-0.06998646858817853	0.33520634702571633	1.279299506061967	51.0	-1.7444993264481368	-35.0	0.10125729681185441	127.0	-0.012048192771084338	1232.0	9.819277108433736	2048.0	0.24096385542168675	2027.0	0.4318181818181818	-475.0	-0.8163636363636364	-898.0	-0.15816326530612246	155.0	95.27165530266888	39899.0	0.9922432440860443	0.11679582070299448	-0.008700121632554356	0.04166999778612287	1.5228160429856875E12	1.522816042998E12	27.351088732175242	26012.0	1425.78125	46720.0	3854.945054945055	2631.0	0.0	0.0	
0.2523982898669899	0.9397413781628575	-0.0694382071073914	0.33476032853710336	1.2334979793444096	65.0	-1.9582397844634039	-32.0	0.5134710372698696	100.0	-0.0963855421686747	1232.0	9.819277108433736	2055.0	0.39759036144578314	2014.0	0.43	-473.0	-0.81	-891.0	-0.15714285714285717	154.0	95.27463419258041	39900.0	0.9920474508257613	0.11828001504107699	-0.008739800515269354	0.04213441869712217	1.5228160429935E12	1.522816042999E12	27.351088732175242	26012.0	1433.59375	46976.0	3856.4102564102564	2632.0	0.0	0.0	
0.255575149372786	0.9399448536073625	-0.06857264188346286	0.33436726060152505	1.9815895823978449	-21.0	-0.6452626852267626	-81.0	0.7730130220026941	83.0	-0.060240963855421686	1235.0	9.783132530120483	2052.0	0.5060240963855422	2005.0	0.4318181818181818	-475.0	-0.8109090909090909	-892.0	-0.15918367346938778	156.0	95.27463419258041	39900.0	0.991846272579086	0.11978663841694642	-0.008738902316518606	0.04261178726648017	1.5228160430013125E12	1.522816043036E12	27.351088732175242	26012.0	1441.40625	47232.0	3849.0842490842488	2627.0	0.0	0.0	
0.2587835540843784	0.9400919319320271	-0.06793654462603341	0.3340835006709895	2.2716659182757075	-33.0	-0.4620565783565336	-100.0	1.2310282891782667	53.0	0.18072289156626506	1236.0	9.771084337349398	2032.0	0.2530120481927711	2026.0	0.42727272727272725	-470.0	-0.8163636363636364	-898.0	-0.15714285714285717	154.0	95.26569752519298	39897.0	0.9916405567647827	0.12130102836435569	-0.008765922189889232	0.04310713751970063	1.522816043009125E12	1.522816043038E12	27.351088732175242	26012.0	1449.21875	47488.0	3844.688644688644	2624.0	0.0	0.0	
0.26197254767764955	0.9402124809986543	-0.06752102133418772	0.3338284024051121	1.9815895823978449	-51.0	-0.18724741805119005	-81.0	1.1699595868881902	57.0	0.45783132530120485	1235.0	9.783132530120483	2009.0	0.1566265060240964	2034.0	0.4318181818181818	-475.0	-0.8181818181818182	-900.0	-0.15714285714285717	154.0	95.27463419258041	39900.0	0.9914335567080537	0.1228030616833745	-0.008819057729396987	0.043602005632465135	1.5228160430169375E12	1.52281604304E12	27.351088732175242	26012.0	1457.03125	47744.0	3838.8278388278386	2620.0	0.0	0.0	
0.2651363538662821	0.9403975515174152	-0.06677115939873396	0.3334577295139532	1.8899865289627302	-89.0	0.3929052537045351	-75.0	0.6356084418500223	92.0	0.27710843373493976	1234.0	9.795180722891567	2024.0	0.26506024096385544	2025.0	0.42818181818181816	-471.0	-0.8090909090909091	-890.0	-0.15816326530612246	155.0	95.27463419258041	39900.0	0.9912257007282529	0.12430195402524287	-0.008825826452228793	0.04407651561461736	1.52281604302475E12	1.522816043042E12	27.351088732175242	26012.0	1464.84375	48000.0	3856.4102564102564	2632.0	0.0	0.0	
0.26831199888291996	0.9406082122482285	-0.065338320848773	0.3331472570498763	2.180062864840593	-156.0	1.4158060170633135	-94.0	1.0020206555904803	68.0	-0.18072289156626506	1233.0	9.807228915662652	2062.0	0.18072289156626506	2032.0	0.42727272727272725	-470.0	-0.82	-902.0	-0.16122448979591839	158.0	95.27761308327432	39901.0	0.9910145725609345	0.12581005616496033	-0.008739257970181316	0.04455975886120204	1.5228160430325625E12	1.52281604305E12	27.351088732175242	26012.0	1472.65625	48256.0	3852.014652014652	2629.0	0.0	0.0	
0.2715153183044809	0.9407423561369048	-0.06400257058426397	0.333027762098887	2.3174674449932646	-161.0	1.492141894925909	-103.0	1.84171531207903	13.0	-0.0963855421686747	1236.0	9.771084337349398	2055.0	0.1927710843373494	2031.0	0.4290909090909091	-472.0	-0.8163636363636364	-898.0	-0.15714285714285717	154.0	95.28059197475062	39902.0	0.9907990732212183	0.12732104675138065	-0.008662174322659836	0.045072322927840455	1.522816043040375E12	1.522816043055E12	27.351088732175242	26012.0	1480.46875	48512.0	3846.1538461538457	2625.0	0.0	0.0	
0.27474114181158227	0.940761750145576	-0.06380538636684084	0.3330108138388514	2.348001796138303	-77.0	0.2096991468343061	-105.0	2.101257296811854	-4.0	0.7228915662650602	1236.0	9.771084337349398	1987.0	0.5060240963855422	2005.0	0.42818181818181816	-471.0	-0.8181818181818182	-900.0	-0.15714285714285717	154.0	95.28059197475062	39902.0	0.9905794913914635	0.12882690980310627	-0.00873744149691608	0.04560214535852265	1.5228160430481875E12	1.522816043056E12	27.351088732175242	26012.0	1488.28125	48768.0	3853.4798534798533	2630.0	0.0	0.0	
0.2779348025071726	0.9409133201391822	-0.06295722513365506	0.3327439132247772	2.378536147283341	-171.0	1.6448136506510997	-107.0	1.0630893578805567	64.0	0.46987951807228917	1238.0	9.74698795180723	2008.0	0.3253012048192771	2020.0	0.44727272727272727	-492.0	-0.8109090909090909	-892.0	-0.15510204081632656	152.0	95.27761308327432	39901.0	0.990359560318391	0.1303358255599588	-0.008720869114219076	0.04609186808386075	1.522816043056E12	1.522816043063E12	27.351088732175242	26012.0	1496.09375	49024.0	3852.014652014652	2629.0	0.0	0.0	
0.28113327342126887	0.9410731955029622	-0.062480007317908384	0.33238154189336194	2.4854063762909746	-96.0	0.4997754827121687	-114.0	0.7882801975752132	82.0	0.5421686746987953	1232.0	9.819277108433736	2002.0	0.18072289156626506	2032.0	0.4318181818181818	-475.0	-0.8163636363636364	-898.0	-0.15714285714285717	154.0	95.27463419258041	39900.0	0.9901367669975282	0.13184829303147655	-0.008753710500762481	0.04656804501841966	1.5228160430638125E12	1.522816043072E12	27.351088732175242	26012.0	1503.90625	49280.0	3852.014652014652	2629.0	0.0	0.0	
0.28430680198810965	0.9413936988479781	-0.06096682010890073	0.3317543528201634	2.760215536596318	-148.0	1.293668612483161	-132.0	-0.14301751234845092	143.0	-0.3373493975903615	1233.0	9.807228915662652	2075.0	0.14457831325301207	2035.0	0.4318181818181818	-475.0	-0.8136363636363636	-895.0	-0.15612244897959185	153.0	95.27463419258041	39900.0	0.9899132082809299	0.13337206672646953	-0.008637481650467323	0.04700133826609858	1.522816043071625E12	1.522816043078E12	27.351088732175242	26012.0	1511.71875	49536.0	3843.223443223443	2623.0	0.0	0.0	
0.28752854851664444	0.9416001653822431	-0.059811785696596106	0.3313784525944945	2.943421643466547	-98.0	0.5303098338572069	-144.0	1.2615626403233047	51.0	-0.20481927710843376	1232.0	9.819277108433736	2064.0	0.10843373493975904	2038.0	0.43272727272727274	-476.0	-0.8036363636363636	-884.0	-0.15612244897959185	153.0	95.27165530266888	39899.0	0.9896837033452011	0.13490264306725833	-0.008569208326092138	0.0474764456868887	1.5228160430794375E12	1.522816043092E12	27.351088732175242	26012.0	1519.53125	49792.0	3841.7582417582416	2622.0	0.0	0.0	
0.29075938878953983	0.9417039126102563	-0.05933255634411571	0.3311697279828134	2.6991468343062417	-64.0	0.011225864391558028	-128.0	1.8875168387965873	10.0	0.3734939759036145	1236.0	9.771084337349398	2016.0	0.13253012048192772	2036.0	0.4390909090909091	-483.0	-0.7963636363636364	-876.0	-0.15408163265306124	151.0	95.27463419258041	39900.0	0.9894509715806048	0.1364228840161042	-0.008595396434189252	0.047975938918013654	1.52281604308725E12	1.522816043109E12	27.351088732175242	26012.0	1527.34375	50048.0	3856.4102564102564	2632.0	0.0	0.0	
0.2939781874755418	0.9418022233908148	-0.058753797343524344	0.33099329798929455	2.6380781320161653	-116.0	0.8051189941625504	-124.0	1.7043107319263582	22.0	0.44578313253012053	1238.0	9.74698795180723	2010.0	0.16867469879518074	2033.0	0.43363636363636365	-477.0	-0.8154545454545454	-897.0	-0.15408163265306124	151.0	95.27463419258041	39900.0	0.9892165395884305	0.13793669510883627	-0.00860510246140826	0.04847739843237961	1.5228160430950625E12	1.52281604311E12	27.351088732175242	26012.0	1535.15625	50304.0	3827.106227106227	2612.0	0.0	0.0	
0.29721268911191157	0.9419615004686124	-0.05793500856031796	0.3306842397484849	3.096093399191738	-136.0	1.110462505612932	-154.0	1.3378985181859002	46.0	0.26506024096385544	1235.0	9.783132530120483	2025.0	-0.012048192771084338	2048.0	0.4318181818181818	-475.0	-0.8136363636363636	-895.0	-0.15510204081632656	152.0	95.27463419258041	39900.0	0.988978382902731	0.1394668024263587	-0.00857785630137917	0.04896110245224331	1.522816043102875E12	1.522816043114E12	27.351088732175242	26012.0	1542.96875	50560.0	3840.29304029304	2621.0	0.0	0.0	
0.300441225333371	0.9421047895182151	-0.057244118172055033	0.33039624165770587	2.943421643466547	-103.0	0.6066457117198023	-144.0	1.50583744948361	35.0	0.2530120481927711	1235.0	9.783132530120483	2026.0	-0.14457831325301207	2059.0	0.4309090909090909	-474.0	-0.8181818181818182	-900.0	-0.15510204081632656	152.0	95.26867641353974	39898.0	0.9887380859296815	0.14099188334028015	-0.008566940876459208	0.04944586725187179	1.5228160431106875E12	1.522816043128E12	27.351088732175242	26012.0	1550.78125	50816.0	3841.7582417582416	2622.0	0.0	0.0	
0.30363705271012303	0.942241409865261	-0.056492171595861146	0.3301359721137784	2.515940727436013	-118.0	0.8356533453075885	-116.0	1.4142343960484955	41.0	0.22891566265060243	1233.0	9.807228915662652	2028.0	-0.16867469879518074	2061.0	0.42818181818181816	-471.0	-0.8145454545454546	-896.0	-0.15000000000000002	147.0	95.26867641353974	39898.0	0.9884976859521082	0.14250081305068224	-0.00854364953516534	0.049928440791217284	1.5228160431185E12	1.522816043129E12	27.351088732175242	26012.0	1558.59375	51072.0	3856.4102564102564	2632.0	0.0	0.0	
0.30685043690176367	0.9423653937294185	-0.0556646657315929	0.32992258135838715	2.6991468343062417	-122.0	0.8967220475976648	-128.0	1.856982487651549	12.0	0.14457831325301207	1234.0	9.795180722891567	2035.0	-0.1566265060240964	2060.0	0.4354545454545454	-479.0	-0.81	-891.0	-0.15204081632653063	149.0	95.27165530266888	39899.0	0.9882534205027829	0.14401605475402873	-0.008506897219707963	0.05042009061205268	1.5228160431263125E12	1.522816043131E12	27.351088732175242	26012.0	1566.40625	51328.0	3849.0842490842488	2627.0	0.0	0.0	
0.31007408292049227	0.9424502596457923	-0.05511025546343296	0.32977320666835946	2.714414009878761	-107.0	0.6677144140098786	-129.0	2.17759317467445	-9.0	0.3734939759036145	1234.0	9.795180722891567	2016.0	-0.13253012048192772	2058.0	0.4318181818181818	-475.0	-0.8081818181818182	-889.0	-0.15510204081632656	152.0	95.27165530266888	39899.0	0.9880058116321201	0.14553005578081538	-0.008509943596071236	0.05092248919269421	1.522816043134125E12	1.522816043152E12	27.351088732175242	26012.0	1574.21875	51584.0	3841.7582417582416	2622.0	0.0	0.0	
0.31328797518295426	0.9425305297477858	-0.05449698059017668	0.3296456879740727	2.6533453075886846	-152.0	1.3547373147732373	-125.0	2.0707229456668164	-2.0	0.4819277108433735	1235.0	9.783132530120483	2007.0	-0.14457831325301207	2059.0	0.4318181818181818	-475.0	-0.8054545454545454	-886.0	-0.1510204081632653	148.0	95.27165530266888	39899.0	0.9877563967742471	0.14703869170658657	-0.008501756150098485	0.051426101496569766	1.5228160431419375E12	1.522816043187E12	27.351088732175242	26012.0	1582.03125	51840.0	3841.7582417582416	2622.0	0.0	0.0	
0.3164876799939359	0.9425963789774099	-0.05395811206563032	0.3295460339330448	2.4396048495734175	-147.0	1.2784014369106418	-111.0	2.101257296811854	-4.0	0.5301204819277109	1234.0	9.795180722891567	2003.0	-0.18072289156626506	2062.0	0.4309090909090909	-474.0	-0.8163636363636364	-898.0	-0.1510204081632653	148.0	95.26867641353974	39898.0	0.9875055491415897	0.14853832718353766	-0.008502947691042075	0.051931258916449695	1.52281604314975E12	1.522816043189E12	27.351088732175242	26012.0	1589.84375	52096.0	3853.4798534798533	2630.0	0.0	0.0	
0.3196721975389382	0.9426844011149121	-0.053339204669263354	0.3293949743694767	2.3327346205657835	-155.0	1.4005388414907944	-104.0	1.8875168387965873	10.0	0.46987951807228917	1235.0	9.783132530120483	2008.0	-0.1566265060240964	2060.0	0.43727272727272726	-481.0	-0.8145454545454546	-896.0	-0.15204081632653063	149.0	95.28059197475062	39902.0	0.9872533825653741	0.15003425251474098	-0.008489275618456095	0.05242531721452808	1.5228160431575625E12	1.522816043191E12	27.351088732175242	26012.0	1597.65625	52352.0	3850.5494505494503	2628.0	0.0	0.0	
0.3228597451750567	0.9427473998265391	-0.05283341374307435	0.32929617445782505	2.3022002694207457	-151.0	1.3394701392007182	-102.0	2.1623259991019306	-8.0	0.5662650602409639	1236.0	9.771084337349398	2000.0	-0.12048192771084337	2057.0	0.43636363636363634	-480.0	-0.8163636363636364	-898.0	-0.15510204081632656	152.0	95.28059197475062	39902.0	0.9869984695064216	0.1515274619670833	-0.008491896231183333	0.05292765968937702	1.522816043165375E12	1.522816043198E12	27.351088732175242	26012.0	1605.46875	52608.0	3841.7582417582416	2622.0	0.0	0.0	
0.32605235730142373	0.942807651344753	-0.05226440671231711	0.32921446559468887	2.424337674000898	-179.0	1.7669510552312524	-110.0	2.17759317467445	-9.0	0.6024096385542169	1238.0	9.74698795180723	1997.0	-0.1927710843373494	2063.0	0.43727272727272726	-481.0	-0.8154545454545454	-897.0	-0.15000000000000002	147.0	95.28059197475062	39902.0	0.9867406383655211	0.15302239461132927	-0.00848277446269338	0.05343315340529319	1.5228160431731875E12	1.522816043199E12	27.351088732175242	26012.0	1613.28125	52864.0	3853.4798534798533	2630.0	0.0	0.0	
0.3292485350057005	0.9428642715342587	-0.05174842659904007	0.3291338114030609	2.5006735518634935	-182.0	1.8127525819488097	-115.0	2.17759317467445	-9.0	0.6626506024096386	1237.0	9.759036144578314	1992.0	-0.3734939759036145	2078.0	0.4290909090909091	-472.0	-0.8181818181818182	-900.0	-0.1489795918367347	146.0	95.27463419258041	39900.0	0.9864800006546212	0.15451819023434588	-0.008480619604502665	0.05393900524004065	1.522816043181E12	1.5228160432E12	27.351088732175242	26012.0	1621.09375	53120.0	3834.432234432234	2617.0	0.0	0.0	
0.3324088647991312	0.9429449966956538	-0.05121674700541986	0.32898568058932093	2.1037269869779975	-193.0	1.9806915132465197	-89.0	1.856982487651549	12.0	0.6987951807228916	1235.0	9.783132530120483	1989.0	-0.4096385542168675	2081.0	0.44181818181818183	-486.0	-0.8090909090909091	-890.0	-0.15306122448979592	150.0	95.27463419258041	39900.0	0.98621980908757	0.15600108974042962	-0.008473313261965591	0.05442748501850927	1.5228160431888125E12	1.522816043201E12	27.351088732175242	26012.0	1628.90625	53376.0	3850.5494505494503	2628.0	0.0	0.0	
0.3355442549177979	0.9430199050349763	-0.05073296044224941	0.3288458992181501	1.7678491243825776	-182.0	1.8127525819488097	-67.0	1.7806466097889535	17.0	0.710843373493976	1236.0	9.771084337349398	1988.0	-0.3132530120481928	2073.0	0.44181818181818183	-486.0	-0.8054545454545454	-886.0	-0.15000000000000002	147.0	95.27165530266888	39899.0	0.9859592373750687	0.15747128574324318	-0.008471702948948676	0.054912718474754166	1.522816043196625E12	1.522816043204E12	27.351088732175242	26012.0	1636.71875	53632.0	3843.223443223443	2623.0	0.0	0.0	
0.3386787605533503	0.9431205912375417	-0.05017077021172194	0.3286433388950703	1.8899865289627302	-186.0	1.8738212842388862	-75.0	1.5363718006286482	33.0	0.6385542168674699	1237.0	9.759036144578314	1994.0	-0.22891566265060243	2066.0	0.4390909090909091	-483.0	-0.7909090909090909	-870.0	-0.1479591836734694	145.0	95.27165530266888	39899.0	0.9856963170343984	0.15894525956772976	-0.00845534088440507	0.05538666135720674	1.5228160432044375E12	1.522816043216E12	27.351088732175242	26012.0	1644.53125	53888.0	3835.8974358974356	2618.0	0.0	0.0	
0.3417933093238804	0.943216469741913	-0.04967947960243836	0.3284427507405675	1.645711719802425	-171.0	1.6448136506510997	-59.0	1.3837000449034573	43.0	0.6506024096385542	1236.0	9.771084337349398	1993.0	-0.24096385542168675	2067.0	0.43363636363636365	-477.0	-0.8054545454545454	-886.0	-0.1469387755102041	144.0	95.27165530266888	39899.0	0.9854326725879629	0.16040906168295724	-0.008448790880533791	0.055856948169363284	1.52281604321225E12	1.522816043222E12	27.351088732175242	26012.0	1652.34375	54144.0	3859.340659340659	2634.0	0.0	0.0	
0.3449148566221145	0.9433007937934399	-0.04922443847880779	0.3282690467971571	1.7373147732375396	-177.0	1.7364167040862144	-65.0	1.521104625056129	34.0	0.710843373493976	1236.0	9.771084337349398	1988.0	-0.27710843373493976	2070.0	0.4390909090909091	-483.0	-0.82	-902.0	-0.1489795918367347	146.0	95.27463419258041	39900.0	0.9851660378846946	0.16187403820368437	-0.008447102649866187	0.05633222888389306	1.5228160432200625E12	1.52281604323E12	27.351088732175242	26012.0	1660.15625	54400.0	3849.0842490842488	2627.0	0.0	0.0	
0.3480147389586917	0.9433916029770328	-0.04874856719712175	0.32807904631147017	1.5083071396497532	-184.0	1.843286933093848	-50.0	1.3378985181859002	46.0	0.6867469879518072	1236.0	9.771084337349398	1990.0	-0.22891566265060243	2066.0	0.4290909090909091	-472.0	-0.82	-902.0	-0.15204081632653063	149.0	95.27463419258041	39900.0	0.9848988787947743	0.16332993761826536	-0.008439867828121375	0.056800516348476514	1.522816043227875E12	1.522816043236E12	27.351088732175242	26012.0	1667.96875	54656.0	3844.688644688644	2624.0	0.0	0.0	
0.3510994709508077	0.9434865074016028	-0.04821813671837205	0.3278844638627029	1.3556353839245623	-187.0	1.8890884598114053	-40.0	1.2310282891782667	53.0	0.6265060240963856	1237.0	9.759036144578314	1995.0	-0.12048192771084337	2057.0	0.4290909090909091	-472.0	-0.8172727272727273	-899.0	-0.1489795918367347	146.0	95.27463419258041	39900.0	0.9846306766933094	0.16477939994901863	-0.008421271075719881	0.05726484139841987	1.5228160432356875E12	1.522816043248E12	27.351088732175242	26012.0	1675.78125	54912.0	3835.8974358974356	2618.0	0.0	0.0	
0.3541970851431014	0.9436132656161926	-0.04770475305110929	0.3275946603494558	1.6762460709474631	-165.0	1.5532105972159853	-61.0	0.956219128872923	71.0	0.5783132530120483	1235.0	9.783132530120483	1999.0	-0.16867469879518074	2061.0	0.43272727272727274	-476.0	-0.8190909090909091	-901.0	-0.1510204081632653	148.0	95.26867641353974	39898.0	0.9843589975259021	0.166240353004228	-0.00840434876889658	0.057713741384539476	1.5228160432435E12	1.522816043249E12	27.351088732175242	26012.0	1683.59375	55168.0	3856.4102564102564	2632.0	0.0	0.0	
0.3572953645234637	0.9437621075346193	-0.047147088190906274	0.327246446056992	1.7525819488100585	-161.0	1.492141894925909	-66.0	0.8951504265828467	75.0	0.5060240963855422	1235.0	9.783132530120483	2005.0	-0.3373493975903615	2075.0	0.4318181818181818	-475.0	-0.7990909090909091	-879.0	-0.15204081632653063	149.0	95.27165530266888	39899.0	0.9840848979736827	0.16770552692569465	-0.008377987635806931	0.05815134686209638	1.5228160432513125E12	1.522816043261E12	27.351088732175242	26012.0	1691.40625	55424.0	3815.3846153846152	2604.0	0.0	0.0	
0.360357742411227	0.9439062536755508	-0.04646774420923467	0.3269277183419705	1.294566681634486	-179.0	1.7669510552312524	-36.0	0.7730130220026941	83.0	0.3855421686746988	1234.0	9.795180722891567	2015.0	-0.3855421686746988	2079.0	0.43	-473.0	-0.8181818181818182	-900.0	-0.1489795918367347	146.0	95.27165530266888	39899.0	0.9838116538136588	0.16915324110189744	-0.008327277745092416	0.05858726218652763	1.522816043259125E12	1.522816043265E12	27.351088732175242	26012.0	1699.21875	55680.0	3844.688644688644	2624.0	0.0	0.0	
0.36340365261930685	0.9440441788211205	-0.04581156917966792	0.3266219352144894	1.0502918724741808	-164.0	1.5379434216434662	-20.0	0.8493488998652895	78.0	0.3493975903614458	1235.0	9.783132530120483	2018.0	-0.27710843373493976	2070.0	0.4318181818181818	-475.0	-0.81	-891.0	-0.1479591836734694	145.0	95.27463419258041	39900.0	0.9835375909869292	0.17059222362986273	-0.008278317508500478	0.05902177404886737	1.5228160432669375E12	1.522816043276E12	27.351088732175242	26012.0	1707.03125	55936.0	3840.29304029304	2621.0	0.0	0.0	
0.36644854320062137	0.9441726690506645	-0.04511370669990514	0.32634755167693685	1.0502918724741808	-177.0	1.7364167040862144	-20.0	0.956219128872923	71.0	0.3132530120481928	1235.0	9.783132530120483	2021.0	-0.16867469879518074	2061.0	0.42818181818181816	-471.0	-0.82	-902.0	-0.1510204081632653	148.0	95.27761308327432	39901.0	0.9832613398397179	0.17202903133030037	-0.00821975420142935	0.05946079041712447	1.52281604327475E12	1.522816043288E12	27.351088732175242	26012.0	1714.84375	56192.0	3846.1538461538457	2625.0	0.0	0.0	
0.3695054738155631	0.9443039992967864	-0.04441440553588772	0.3260633642300062	1.2487651549169287	-179.0	1.7669510552312524	-33.0	1.0325550067355185	66.0	0.3253012048192771	1235.0	9.783132530120483	2020.0	-0.1927710843373494	2063.0	0.43363636363636365	-477.0	-0.8118181818181818	-893.0	-0.15000000000000002	147.0	95.27761308327432	39901.0	0.9829817037705634	0.17347193467371275	-0.008159081038977783	0.05989897603030424	1.5228160432825625E12	1.522816043289E12	27.351088732175242	26012.0	1722.65625	56448.0	3849.0842490842488	2627.0	0.0	0.0	
0.3725410088854371	0.9444483175701734	-0.04374396248006126	0.32573584571766084	1.0502918724741808	-164.0	1.5379434216434662	-20.0	0.7119443197126177	87.0	0.30120481927710846	1234.0	9.795180722891567	2022.0	-0.22891566265060243	2066.0	0.43363636363636365	-477.0	-0.8209090909090909	-903.0	-0.1489795918367347	146.0	95.27463419258041	39900.0	0.9827017524863669	0.17490730413243544	-0.00810117230039899	0.06032471822317771	1.522816043290375E12	1.522816043309E12	27.351088732175242	26012.0	1730.46875	56704.0	3838.8278388278386	2620.0	0.0	0.0	
0.3755788166725489	0.9445713104669178	-0.04309493868714425	0.32546561370191046	0.9739559946115854	-161.0	1.492141894925909	-15.0	1.1546924113156711	58.0	0.28915662650602414	1234.0	9.795180722891567	2023.0	-0.22891566265060243	2066.0	0.43454545454545457	-478.0	-0.8154545454545454	-897.0	-0.15204081632653063	149.0	95.27165530266888	39899.0	0.982419325289417	0.17633977451766952	-0.008045291749531669	0.060760402414805195	1.5228160432981875E12	1.522816043311E12	27.351088732175242	26012.0	1738.28125	56960.0	3841.7582417582416	2622.0	0.0	0.0	
0.37861329972627145	0.9446809834010214	-0.0425632954803302	0.32521716664152556	0.9128872923215091	-135.0	1.095195330040413	-11.0	1.1852267624607093	56.0	0.3373493975903615	1235.0	9.783132530120483	2019.0	-0.1566265060240964	2060.0	0.4263636363636364	-469.0	-0.8172727272727273	-899.0	-0.1479591836734694	145.0	95.27165530266888	39899.0	0.9821349444058537	0.1777681562390074	-0.008009474832185127	0.06119870846028879	1.522816043306E12	1.522816043339E12	27.351088732175242	26012.0	1746.09375	57216.0	3859.340659340659	2634.0	0.0	0.0	
0.38165064900899365	0.9447947146336736	-0.04209316912394498	0.32494786091522926	0.9586888190390663	-108.0	0.6829815895823977	-14.0	1.2615626403233047	51.0	0.3253012048192771	1236.0	9.771084337349398	2020.0	-0.14457831325301207	2059.0	0.43363636363636365	-477.0	-0.8127272727272727	-894.0	-0.1489795918367347	146.0	95.28059197475062	39902.0	0.981848030809802	0.17919855473966223	-0.007983782037082823	0.06163263420068086	1.5228160433138125E12	1.522816043342E12	27.351088732175242	26012.0	1753.90625	57472.0	3853.4798534798533	2630.0	0.0	0.0	
0.3847015320864794	0.9449015639414912	-0.04175250884563615	0.3246810164854411	1.1418949259092952	-104.0	0.6219128872923214	-26.0	1.3226313426133811	47.0	0.49397590361445787	1236.0	9.771084337349398	2006.0	-0.28915662650602414	2071.0	0.4354545454545454	-479.0	-0.8154545454545454	-897.0	-0.15000000000000002	147.0	95.27761308327432	39901.0	0.9815575591228547	0.18063383969671598	-0.007981694895602222	0.06206824173277537	1.522816043321625E12	1.522816043343E12	27.351088732175242	26012.0	1761.71875	57728.0	3846.1538461538457	2625.0	0.0	0.0	
0.3877335261478043	0.9449966728623633	-0.0414109720169413	0.3244478689646087	0.8670857656039518	-122.0	0.8967220475976648	-8.0	1.3684328693309382	44.0	0.5421686746987953	1235.0	9.783132530120483	2002.0	-0.3855421686746988	2079.0	0.43	-473.0	-0.8163636363636364	-898.0	-0.15000000000000002	147.0	95.27761308327432	39901.0	0.9812666229516788	0.18205800452302748	-0.007978016375366997	0.06250639107175833	1.5228160433294375E12	1.522816043344E12	27.351088732175242	26012.0	1769.53125	57984.0	3853.4798534798533	2630.0	0.0	0.0	
0.39074594940875296	0.9450908406725554	-0.04109415284611468	0.3242137774350428	0.6533453075886847	-128.0	0.9883251010327793	6.0	1.1852267624607093	56.0	0.6024096385542169	1235.0	9.783132530120483	1997.0	-0.39759036144578314	2080.0	0.4290909090909091	-472.0	-0.8209090909090909	-903.0	-0.1479591836734694	145.0	95.27463419258041	39900.0	0.9809753312983235	0.18347277905204135	-0.007977707645648712	0.06294040762328879	1.52281604333725E12	1.522816043353E12	27.351088732175242	26012.0	1777.34375	58240.0	3854.945054945055	2631.0	0.0	0.0	
0.3937334523217616	0.9451887451714894	-0.040765643770341975	0.3239697490339745	0.348001796138303	-135.0	1.095195330040413	26.0	1.0783565334530758	63.0	0.6144578313253012	1237.0	9.759036144578314	1996.0	-0.3855421686746988	2079.0	0.43272727272727274	-476.0	-0.8136363636363636	-895.0	-0.1489795918367347	146.0	95.27463419258041	39900.0	0.9806842513882248	0.18487659683441224	-0.007973659786498393	0.06336768712563641	1.5228160433450625E12	1.522816043356E12	27.351088732175242	26012.0	1785.15625	58496.0	3852.014652014652	2629.0	0.0	0.0	
0.3967184458060532	0.9453104645222866	-0.040438826387822285	0.32365541395909575	0.4548720251459366	-124.0	0.927256398742703	19.0	0.742478670857656	85.0	0.5903614457831325	1236.0	9.771084337349398	1998.0	-0.43373493975903615	2083.0	0.4354545454545454	-479.0	-0.8181818181818182	-900.0	-0.15000000000000002	147.0	95.27463419258041	39900.0	0.9803912305402513	0.18628381911418093	-0.007968915295807828	0.06377985736120041	1.522816043352875E12	1.522816043357E12	27.351088732175242	26012.0	1792.96875	58752.0	3840.29304029304	2621.0	0.0	0.0	
0.3996980857878612	0.9454300684001835	-0.04013956369371344	0.3233431632048316	0.3938033228558602	-125.0	0.9425235743152222	23.0	0.757745846430175	84.0	0.6265060240963856	1236.0	9.771084337349398	1995.0	-0.5301204819277109	2091.0	0.43	-473.0	-0.8118181818181818	-893.0	-0.15000000000000002	147.0	95.26569752519298	39897.0	0.9800965572214673	0.18768808236168535	-0.007968561597851483	0.06419053114036173	1.5228160433606875E12	1.522816043374E12	27.351088732175242	26012.0	1800.78125	59008.0	3834.432234432234	2617.0	0.0	0.0	
0.40263557041424586	0.9455657583355329	-0.03972498642177779	0.3229974026476668	-0.07947911989223133	-143.0	1.2173327346205656	54.0	0.42186798383475516	106.0	0.5301204819277109	1236.0	9.771084337349398	2003.0	-0.5180722891566265	2090.0	0.43272727272727274	-476.0	-0.8054545454545454	-886.0	-0.1489795918367347	146.0	95.27761308327432	39901.0	0.9798039234407512	0.18907596744416455	-0.007943435105587498	0.06458677870808532	1.5228160433685E12	1.522816043375E12	27.351088732175242	26012.0	1808.59375	59264.0	3847.6190476190473	2626.0	0.0	0.0	
0.4055579512117889	0.9456795493547508	-0.039279629233613486	0.32271860910005634	-0.3695554557700939	-140.0	1.1715312079030082	73.0	0.7272114952851368	86.0	0.43373493975903615	1235.0	9.783132530120483	2011.0	-0.44578313253012053	2084.0	0.4309090909090909	-474.0	-0.8209090909090909	-903.0	-0.1489795918367347	146.0	95.27761308327432	39901.0	0.9795106969476366	0.1904524293994253	-0.007910608639633466	0.06499299171420793	1.5228160433763125E12	1.522816043383E12	27.351088732175242	26012.0	1816.40625	59520.0	3852.014652014652	2629.0	0.0	0.0	
0.40847812952728246	0.9457883791527728	-0.038838635591100595	0.3224529457843472	-0.4000898069151321	-133.0	1.0646609788953747	75.0	0.8340817242927704	79.0	0.4096385542168675	1235.0	9.783132530120483	2013.0	-0.3855421686746988	2079.0	0.43363636363636365	-477.0	-0.8209090909090909	-903.0	-0.1479591836734694	145.0	95.27463419258041	39900.0	0.9792156024803701	0.19182678430743794	-0.007877333594438037	0.06540058330562393	1.522816043384125E12	1.522816043396E12	27.351088732175242	26012.0	1824.21875	59776.0	3843.223443223443	2623.0	0.0	0.0	
0.41138088258955424	0.9458973904079683	-0.03836124980317207	0.32219022538391756	-0.5985630893578802	-144.0	1.2325999101930847	88.0	0.7882801975752132	82.0	0.39759036144578314	1236.0	9.771084337349398	2014.0	-0.27710843373493976	2070.0	0.43272727272727274	-476.0	-0.8072727272727273	-888.0	-0.1469387755102041	144.0	95.27165530266888	39899.0	0.9789201999935423	0.19319301100798042	-0.00783502040565697	0.06580512896056566	1.5228160433919375E12	1.522816043403E12	27.351088732175242	26012.0	1832.03125	60032.0	3838.8278388278386	2620.0	0.0	0.0	
0.4142688370575817	0.9460074877217867	-0.03782649117037371	0.32193010070519507	-0.751234845083071	-160.0	1.47687471935339	98.0	0.757745846430175	84.0	0.3734939759036145	1234.0	9.795180722891567	2016.0	-0.13253012048192772	2058.0	0.4381818181818182	-482.0	-0.8036363636363636	-884.0	-0.1489795918367347	146.0	95.27165530266888	39899.0	0.9786242571574603	0.19455251371437343	-0.007779260775106097	0.06620699217016848	1.52281604339975E12	1.522816043411E12	27.351088732175242	26012.0	1839.84375	60288.0	3857.8754578754574	2633.0	0.0	0.0	
0.4171547532794542	0.9461052349787451	-0.03726705824569553	0.3217080209064234	-0.76650202065559	-166.0	1.5684777727885044	99.0	0.8646160754378086	77.0	0.3253012048192771	1235.0	9.783132530120483	2020.0	0.04819277108433735	2043.0	0.4318181818181818	-475.0	-0.8190909090909091	-901.0	-0.1510204081632653	148.0	95.27165530266888	39899.0	0.9783264848500173	0.1959084213066929	-0.007716827132684457	0.06661553933679891	1.5228160434075625E12	1.52281604342E12	27.351088732175242	26012.0	1847.65625	60544.0	3853.4798534798533	2630.0	0.0	0.0	
0.4200465879532548	0.946212297654713	-0.03668038454493888	0.32146047526348615	-0.5985630893578802	-171.0	1.6448136506510997	88.0	0.8035473731477323	81.0	0.3132530120481928	1235.0	9.783132530120483	2021.0	0.14457831325301207	2035.0	0.43727272727272726	-481.0	-0.8136363636363636	-895.0	-0.15306122448979592	150.0	95.27463419258041	39900.0	0.9780260585987696	0.19726887757423497	-0.007647224947410158	0.06701894204597286	1.522816043415375E12	1.522816043437E12	27.351088732175242	26012.0	1855.46875	60800.0	3843.223443223443	2623.0	0.0	0.0	
0.4229333971402421	0.9463034482269825	-0.036067443844429864	0.3212614564000122	-0.6748989672204756	-176.0	1.7211495285136953	93.0	0.940951953300404	72.0	0.26506024096385544	1236.0	9.771084337349398	2025.0	0.27710843373493976	2024.0	0.42818181818181816	-471.0	-0.8172727272727273	-899.0	-0.1489795918367347	146.0	95.27463419258041	39900.0	0.9777241150245779	0.19862355947478164	-0.00757034552812823	0.06743090085086233	1.5228160434231875E12	1.522816043438E12	27.351088732175242	26012.0	1863.28125	61056.0	3840.29304029304	2621.0	0.0	0.0	
0.4258451519622997	0.9463898789831635	-0.03547116113261738	0.32107319054405803	-0.3084867534800176	-177.0	1.7364167040862144	69.0	1.093623709025595	62.0	0.28915662650602414	1235.0	9.783132530120483	2023.0	0.3132530120481928	2021.0	0.4290909090909091	-472.0	-0.8218181818181818	-904.0	-0.1489795918367347	146.0	95.27463419258041	39900.0	0.9774174987968395	0.19998862510743984	-0.007495672664524352	0.06784834386094227	1.522816043431E12	1.522816043439E12	27.351088732175242	26012.0	1871.09375	61312.0	3854.945054945055	2631.0	0.0	0.0	
0.42876163526934896	0.946472586291384	-0.03486351381083788	0.32089590025997733	-0.2168837000449031	-195.0	2.011225864391558	63.0	1.139425235743152	59.0	0.3373493975903615	1235.0	9.783132530120483	2019.0	0.27710843373493976	2024.0	0.4309090909090909	-474.0	-0.82	-902.0	-0.1479591836734694	145.0	95.27463419258041	39900.0	0.9771083078837913	0.20135490717019594	-0.007416949723303369	0.06826818351002079	1.5228160434388125E12	1.522816043446E12	27.351088732175242	26012.0	1878.90625	61568.0	3852.014652014652	2629.0	0.0	0.0	
0.4316886729611637	0.9465602970122701	-0.03422961730621357	0.32070537478987515	-0.003143242029635918	-220.0	2.392905253704535	49.0	1.124158060170633	60.0	0.39759036144578314	1235.0	9.783132530120483	2014.0	0.26506024096385544	2025.0	0.43636363636363634	-480.0	-0.8136363636363636	-895.0	-0.1510204081632653	148.0	95.27463419258041	39900.0	0.976795908966299	0.20272694759204282	-0.007331034119681113	0.06868619137389267	1.522816043446625E12	1.522816043453E12	27.351088732175242	26012.0	1886.71875	61824.0	3846.1538461538457	2625.0	0.0	0.0	
0.4346237497092927	0.946636226997834	-0.033521462670695376	0.32055602517456766	0.13426133812303584	-266.0	3.0951953300404127	40.0	1.2310282891782667	53.0	0.42168674698795183	1236.0	9.771084337349398	2012.0	0.24096385542168675	2027.0	0.42818181818181816	-471.0	-0.8209090909090909	-903.0	-0.15204081632653063	149.0	95.27165530266888	39899.0	0.9764805512378152	0.20409998016617795	-0.007227411830548774	0.06911364314438792	1.5228160434544375E12	1.522816043489E12	27.351088732175242	26012.0	1894.53125	62080.0	3838.8278388278386	2620.0	0.0	0.0	
0.43756684716412464	0.9467204569654276	-0.0326495248273815	0.3203972298440153	0.3327346205657839	-317.0	3.873821284238886	27.0	1.2615626403233047	51.0	0.3734939759036145	1235.0	9.783132530120483	2016.0	0.20481927710843376	2030.0	0.44	-484.0	-0.8045454545454546	-885.0	-0.1510204081632653	148.0	95.27463419258041	39900.0	0.9761622200858376	0.20547829838995807	-0.007086324960458768	0.0695397222198281	1.52281604346225E12	1.522816043491E12	27.351088732175242	26012.0	1902.34375	62336.0	3857.8754578754574	2633.0	0.0	0.0	
0.44051761727428135	0.946782130978163	-0.03169905109838798	0.3203104222779972	0.40907049842837934	-369.0	4.667714414009879	22.0	1.50583744948361	35.0	0.39759036144578314	1235.0	9.783132530120483	2014.0	0.13253012048192772	2036.0	0.43272727272727274	-476.0	-0.8181818181818182	-900.0	-0.15000000000000002	147.0	95.27463419258041	39900.0	0.975840936936165	0.20685503007564543	-0.006925677992625426	0.06998212140464025	1.5228160434700625E12	1.522816043493E12	27.351088732175242	26012.0	1910.15625	62592.0	3850.5494505494503	2628.0	0.0	0.0	
0.4434758994290358	0.9468276896079204	-0.030436770595130853	0.3202981879241071	0.531207903008532	-499.0	6.652447238437359	14.0	1.8111809609339917	15.0	0.3734939759036145	1233.0	9.807228915662652	2016.0	0.04819277108433735	2043.0	0.4409090909090909	-485.0	-0.8027272727272727	-883.0	-0.1489795918367347	146.0	95.27463419258041	39900.0	0.9755167035766746	0.2082314141916459	-0.006693817527743945	0.07044169215422622	1.522816043477875E12	1.522816043494E12	27.351088732175242	26012.0	1917.96875	62848.0	3847.6190476190473	2626.0	0.0	0.0	
0.4464261178058081	0.9468482579937005	-0.028960676806438383	0.32037424293036193	0.4243376740008984	-611.0	8.362370902559498	21.0	1.9638527166591826	5.0	0.39759036144578314	1235.0	9.783132530120483	2014.0	0.024096385542168676	2045.0	0.4354545454545454	-479.0	-0.8072727272727273	-888.0	-0.1489795918367347	146.0	95.27463419258041	39900.0	0.9751912284486638	0.20959821928536282	-0.006410854365186758	0.0709193582563964	1.5228160434856875E12	1.5228160435E12	27.351088732175242	26012.0	1925.78125	63104.0	3852.014652014652	2629.0	0.0	0.0	
0.4493843777570453	0.9468327912042926	-0.02729914377096141	0.3205657845897782	0.4854063762909748	-717.0	9.98069151324652	17.0	2.3302649303996406	-19.0	0.43373493975903615	1235.0	9.783132530120483	2011.0	0.07228915662650603	2041.0	0.43272727272727274	-476.0	-0.82	-902.0	-0.1489795918367347	146.0	95.27463419258041	39900.0	0.9748627355076525	0.21096031007453514	-0.006082421192200493	0.07142407608246304	1.5228160434935E12	1.522816043501E12	27.351088732175242	26012.0	1933.59375	63360.0	3835.8974358974356	2618.0	0.0	0.0	
0.452352179925307	0.9468503241425493	-0.02671031716874433	0.32056360153313157	0.30220026942074574	-214.0	2.3013022002694203	29.0	2.8646160754378087	-54.0	0.2530120481927711	1235.0	9.783132530120483	2026.0	0.10843373493975904	2038.0	0.42727272727272725	-470.0	-0.8181818181818182	-900.0	-0.1479591836734694	145.0	95.27761308327432	39901.0	0.9745310398148427	0.21233369730925508	-0.005989859491127456	0.07188723814182603	1.5228160435013125E12	1.522816043508E12	27.351088732175242	26012.0	1941.40625	63616.0	3852.014652014652	2629.0	0.0	0.0	
0.45534222439297223	0.9468429868561711	-0.02609396172952152	0.32063602948287095	0.6533453075886847	-324.0	3.98069151324652	6.0	2.8951504265828465	-56.0	0.6385542168674699	1236.0	9.771084337349398	1994.0	0.16867469879518074	2033.0	0.4318181818181818	-475.0	-0.8127272727272727	-894.0	-0.1489795918367347	146.0	95.27463419258041	39900.0	0.9741946881544936	0.213711312795856	-0.005889651076972038	0.0723705490156882	1.522816043509125E12	1.522816043517E12	27.351088732175242	26012.0	1949.21875	63872.0	3843.223443223443	2623.0	0.0	0.0	
0.45833809695535527	0.9468411492047135	-0.025416584647076686	0.3206958612105451	0.8060170633138755	-350.0	4.3776380781320166	-4.0	2.8340817242927705	-52.0	0.6385542168674699	1235.0	9.783132530120483	1994.0	0.07228915662650603	2041.0	0.4354545454545454	-479.0	-0.8136363636363636	-895.0	-0.1479591836734694	145.0	95.27463419258041	39900.0	0.9738554971050337	0.2150923655775886	-0.0057738442411745675	0.07285195777206806	1.5228160435169375E12	1.522816043523E12	27.351088732175242	26012.0	1957.03125	64128.0	3835.8974358974356	2618.0	0.0	0.0	
0.4613255365645009	0.9468327224325043	-0.025197867142978895	0.32073799778401146	0.7449483610237991	-290.0	3.461607543780871	0.0	2.589806915132465	-36.0	1.2048192771084338	1239.0	9.734939759036145	1947.0	0.060240963855421686	2042.0	0.4354545454545454	-479.0	-0.8063636363636364	-887.0	-0.15306122448979592	150.0	95.26569752519298	39897.0	0.9735150848975547	0.21646753736026592	-0.005760806653532858	0.07332801547014205	1.52281604352475E12	1.522816043534E12	27.351088732175242	26012.0	1964.84375	64384.0	3852.014652014652	2629.0	0.0	0.0	
0.4642851808784494	0.9469010728258199	-0.025142982345021905	0.32054046346773124	0.89762011674899	-231.0	2.560844185002245	-10.0	0.9104176021553658	74.0	1.3734939759036144	1241.0	9.710843373493976	1933.0	0.012048192771084338	2046.0	0.4409090909090909	-485.0	-0.8045454545454546	-885.0	-0.15000000000000002	147.0	95.27761308327432	39901.0	0.9731756980155387	0.2178470596127557	-0.005784474145131728	0.07374455416442433	1.5228160435325625E12	1.522816043538E12	27.351088732175242	26012.0	1972.65625	64640.0	3849.0842490842488	2627.0	0.0	0.0	
0.4671963066461201	0.9470541644293008	-0.025138908218928956	0.3200881830538002	0.5770094297260893	-124.0	0.927256398742703	11.0	-0.4636281993713517	164.0	1.108433734939759	1236.0	9.771084337349398	1955.0	-0.24096385542168675	2067.0	0.43636363636363634	-480.0	-0.8209090909090909	-903.0	-0.15204081632653063	149.0	95.27761308327432	39901.0	0.9728397958113796	0.21922356874247068	-0.005819140426212065	0.07409383373931162	1.522816043540375E12	1.522816043551E12	27.351088732175242	26012.0	1980.46875	64896.0	3847.6190476190473	2626.0	0.0	0.0	
0.4700686612336742	0.9472441087226227	-0.025029845904529273	0.3195342005236362	0.18006286484059308	-88.0	0.37763807813201605	37.0	-0.9369106421194433	195.0	0.7951807228915663	1235.0	9.783132530120483	1981.0	-0.2530120481927711	2068.0	0.43454545454545457	-478.0	-0.8190909090909091	-901.0	-0.15408163265306124	151.0	95.27165530266888	39899.0	0.9725063471162273	0.2205907718094133	-0.005828859715787991	0.07441196547325578	1.5228160435481875E12	1.522816043553E12	27.351088732175242	26012.0	1988.28125	65152.0	3840.29304029304	2621.0	0.0	0.0	
0.47291306140049244	0.947388335454381	-0.024846818644864002	0.31912063149882514	-0.4000898069151321	-111.0	0.728783116299955	75.0	-0.28042209250112266	152.0	0.710843373493976	1236.0	9.771084337349398	1988.0	0.060240963855421686	2042.0	0.4309090909090909	-474.0	-0.8109090909090909	-892.0	-0.1479591836734694	145.0	95.27761308327432	39901.0	0.9721741669103241	0.22193446673053918	-0.005820596728429786	0.07475695501405612	1.522816043556E12	1.522816043559E12	27.351088732175242	26012.0	1996.09375	65408.0	3853.4798534798533	2630.0	0.0	0.0	
0.47581394053232495	0.9475325036306247	-0.02457469747891239	0.31871341171544637	0.4854063762909748	-149.0	1.30893578805568	17.0	-0.14301751234845092	143.0	0.6987951807228916	1237.0	9.759036144578314	1989.0	0.10843373493975904	2038.0	0.42727272727272725	-470.0	-0.8190909090909091	-901.0	-0.15000000000000002	147.0	95.27761308327432	39901.0	0.9718333655486632	0.22330410201901751	-0.0057914960509436834	0.07511089269427244	1.5228160435638125E12	1.52281604357E12	27.351088732175242	26012.0	2003.90625	128.0	3853.4798534798533	2630.0	0.0	0.0	
0.4787547964982571	0.9476531046037855	-0.024241758667002792	0.3183801665800417	0.9281544678940281	-198.0	2.057027391109115	-12.0	0.4982038616973506	101.0	0.7590361445783133	1235.0	9.783132530120483	1984.0	-0.08433734939759037	2054.0	0.4318181818181818	-475.0	-0.8181818181818182	-900.0	-0.15204081632653063	149.0	95.26867641353974	39898.0	0.9714857806525772	0.22468648869727972	-0.005747668221920736	0.07548724459635861	1.522816043571625E12	1.522816043577E12	27.351088732175242	26012.0	2011.71875	384.0	3847.6190476190473	2626.0	0.0	0.0	
0.48168207803785	0.9477705233269638	-0.02401538667354321	0.3180476321487885	0.7907498877413565	-196.0	2.026493039964077	-3.0	0.2997305792546025	114.0	0.963855421686747	1237.0	9.759036144578314	1967.0	-0.18072289156626506	2062.0	0.43454545454545457	-478.0	-0.8136363636363636	-895.0	-0.1479591836734694	145.0	95.26867641353974	39898.0	0.9711377141555699	0.2260617280227428	-0.005728137430881709	0.07586055437207676	1.5228160435794375E12	1.522816043591E12	27.351088732175242	26012.0	2019.53125	640.0	3835.8974358974356	2618.0	0.0	0.0	
0.484566231026047	0.9478909939776156	-0.023987868792084564	0.3176904872465431	0.30220026942074574	-159.0	1.4616075437808709	29.0	-0.15828468792097	144.0	1.1927710843373494	1238.0	9.74698795180723	1948.0	-0.0963855421686747	2055.0	0.43454545454545457	-478.0	-0.8218181818181818	-904.0	-0.1510204081632653	148.0	95.26867641353974	39898.0	0.9707927411645793	0.2274177056308089	-0.005755161847014638	0.07622020060256922	1.52281604358725E12	1.522816043595E12	27.351088732175242	26012.0	2027.34375	896.0	3856.4102564102564	2632.0	0.0	0.0	
0.4874119345385843	0.9480454156013822	-0.02400583694714465	0.31722800908757415	0.027391109115402247	-120.0	0.8661876964526267	47.0	-1.0285136955545577	201.0	1.1686746987951808	1238.0	9.74698795180723	1950.0	0.012048192771084338	2046.0	0.43	-473.0	-0.8209090909090909	-903.0	-0.1489795918367347	146.0	95.28357086700932	39903.0	0.9704503884509466	0.22876405332683045	-0.00579262604212712	0.07654735099545822	1.5228160435950625E12	1.522816043608E12	27.351088732175242	26012.0	2035.15625	1152.0	3853.4798534798533	2630.0	0.0	0.0	
0.49028185394762913	0.9482524864205395	-0.02389667272479966	0.3166167573422869	0.6228109564436465	-101.0	0.5761113605747641	8.0	-1.5628648405927257	236.0	0.9277108433734941	1237.0	9.759036144578314	1970.0	-0.060240963855421686	2052.0	0.44	-484.0	-0.8136363636363636	-895.0	-0.15204081632653063	149.0	95.27463419258041	39900.0	0.970103132610253	0.23013427946742643	-0.005799556170899117	0.0768406836383086	1.522816043602875E12	1.522816043609E12	27.351088732175242	26012.0	2042.96875	1408.0	3837.362637362637	2619.0	0.0	0.0	
0.49313392501992037	0.9484652430422631	-0.023723212154074094	0.31599191753251477	0.4243376740008984	-106.0	0.6524472384373595	21.0	-1.7002694207453974	245.0	0.8313253012048193	1235.0	9.783132530120483	1978.0	-0.1927710843373494	2063.0	0.4354545454545454	-479.0	-0.8127272727272727	-894.0	-0.1489795918367347	146.0	95.27463419258041	39900.0	0.9697560574371468	0.23149778780246721	-0.005790271360520525	0.07712610494571094	1.5228160436106875E12	1.522816043639E12	27.351088732175242	26012.0	2050.78125	1664.0	3838.8278388278386	2620.0	0.0	0.0	
0.4959718765667715	0.9486604537879567	-0.023465300833539798	0.31542467100025656	0.18006286484059308	-143.0	1.2173327346205656	37.0	-1.440727436012573	228.0	0.783132530120482	1236.0	9.771084337349398	1982.0	-0.16867469879518074	2061.0	0.43272727272727274	-476.0	-0.8172727272727273	-899.0	-0.15204081632653063	149.0	95.27463419258041	39900.0	0.969408743047524	0.23285061459065876	-0.005759605240027983	0.07742161930140161	1.5228160436185E12	1.522816043642E12	27.351088732175242	26012.0	2058.59375	1920.0	3854.945054945055	2631.0	0.0	0.0	
0.4988243900038544	0.9488366426006939	-0.02318202025370695	0.31491525779994173	0.348001796138303	-168.0	1.5990121239335426	26.0	-1.1506511001347104	209.0	0.819277108433735	1236.0	9.771084337349398	1979.0	-0.13253012048192772	2058.0	0.4309090909090909	-474.0	-0.8181818181818182	-900.0	-0.1489795918367347	146.0	95.28059197475062	39902.0	0.969057679599318	0.2342055091250036	-0.005722119711970755	0.07773191398058805	1.5228160436263125E12	1.522816043643E12	27.351088732175242	26012.0	2066.40625	2176.0	3854.945054945055	2631.0	0.0	0.0	
0.5016704654612245	0.9490078305779058	-0.022973894963288336	0.3144142771122802	0.2716659182757076	-156.0	1.4158060170633135	31.0	-1.1506511001347104	209.0	0.9277108433734941	1236.0	9.771084337349398	1970.0	-0.10843373493975904	2056.0	0.43454545454545457	-478.0	-0.81	-891.0	-0.1469387755102041	144.0	95.28059197475062	39902.0	0.9687054438869411	0.23555621373244984	-0.0057024226121967165	0.07804175505579675	1.522816043634125E12	1.522816043644E12	27.351088732175242	26012.0	2074.21875	2432.0	3850.5494505494503	2628.0	0.0	0.0	
0.5045094786386952	0.9492024591276518	-0.022798324440611615	0.31383901603961534	0.36326897171082206	-141.0	1.1867983834755274	25.0	-1.6544678940278401	242.0	0.9518072289156627	1239.0	9.734939759036145	1968.0	-0.12048192771084337	2057.0	0.43636363636363634	-480.0	-0.8190909090909091	-901.0	-0.15306122448979592	150.0	95.27165530266888	39899.0	0.9683521278472338	0.23690951817285916	-0.005690187595318329	0.07833044400466568	1.5228160436419375E12	1.522816043656E12	27.351088732175242	26012.0	2082.03125	2688.0	3853.4798534798533	2630.0	0.0	0.0	
0.5073162039024665	0.9494165725610885	-0.022631569062188935	0.3132027838767319	0.0731926358329595	-121.0	0.8814548720251458	44.0	-2.219353390211046	279.0	0.9156626506024097	1237.0	9.759036144578314	1971.0	-0.16867469879518074	2061.0	0.43	-473.0	-0.8181818181818182	-900.0	-0.15000000000000002	147.0	95.27761308327432	39901.0	0.9680009119777874	0.23825293342970297	-0.005679317038503122	0.07859719766180853	1.52281604364975E12	1.522816043659E12	27.351088732175242	26012.0	2089.84375	2944.0	3859.340659340659	2634.0	0.0	0.0	
0.510120110025643	0.9496689238047219	-0.022332101073700008	0.3124583370966724	0.2411315671306694	-114.0	0.7745846430175122	33.0	-2.6621014818140996	308.0	0.6867469879518072	1236.0	9.771084337349398	1990.0	-0.2530120481927711	2068.0	0.4381818181818182	-482.0	-0.8027272727272727	-883.0	-0.1510204081632653	148.0	95.27761308327432	39901.0	0.9676481453423456	0.2396048134606851	-0.00563446773693665	0.07883433868125465	1.5228160436575625E12	1.522816043668E12	27.351088732175242	26012.0	2097.65625	3200.0	3849.0842490842488	2627.0	0.0	0.0	
0.5129193508240323	0.9499161050844978	-0.02195056711878074	0.31173316458834077	0.14952851369555492	-129.0	1.0035922766052983	39.0	-2.4483610237988325	294.0	0.5662650602409639	1235.0	9.783132530120483	2000.0	-0.3855421686746988	2079.0	0.44	-484.0	-0.8063636363636364	-887.0	-0.15204081632653063	149.0	95.28059197475062	39902.0	0.9672940685217134	0.2409534524585176	-0.005567928475349049	0.07907349064968056	1.522816043665375E12	1.522816043678E12	27.351088732175242	26012.0	2105.46875	3456.0	3857.8754578754574	2633.0	0.0	0.0	
0.515692243732668	0.9501601285051448	-0.021498909805526118	0.31102013934190575	-0.17108217332734585	-144.0	1.2325999101930847	60.0	-2.6010327795240236	304.0	0.4819277108433735	1235.0	9.783132530120483	2007.0	-0.45783132530120485	2085.0	0.4354545454545454	-479.0	-0.8090909090909091	-890.0	-0.14489795918367349	142.0	95.26569752519298	39897.0	0.966941456252704	0.24228937991354166	-0.005482189127208655	0.07930965996261086	1.5228160436731875E12	1.52281604368E12	27.351088732175242	26012.0	2113.28125	3712.0	3837.362637362637	2619.0	0.0	0.0	
0.5184535748058446	0.9503897283070302	-0.0210168799294718	0.3103508580405677	-0.4153569824876512	-152.0	1.3547373147732373	76.0	-2.204086214638527	278.0	0.39759036144578314	1234.0	9.795180722891567	2014.0	-0.46987951807228917	2086.0	0.43272727272727274	-476.0	-0.8163636363636364	-898.0	-0.15306122448979592	150.0	95.26569752519298	39897.0	0.9665884671540529	0.24361648802602437	-0.005387325141658609	0.07955324414794297	1.522816043681E12	1.522816043685E12	27.351088732175242	26012.0	2121.09375	3968.0	3857.8754578754574	2633.0	0.0	0.0	
0.521206165353358	0.9506218971119471	-0.0205457131003395	0.3096706030679753	-0.44589133363268935	-152.0	1.3547373147732373	78.0	-2.4178266726537943	292.0	0.42168674698795183	1236.0	9.771084337349398	2012.0	-0.3855421686746988	2079.0	0.43	-473.0	-0.8172727272727273	-899.0	-0.15306122448979592	150.0	95.27463419258041	39900.0	0.9662347615743311	0.24494039232573972	-0.005293876611403801	0.07979075512320745	1.5228160436888125E12	1.522816043705E12	27.351088732175242	26012.0	2128.90625	4224.0	3850.5494505494503	2628.0	0.0	0.0	
0.5239428724822475	0.9508431118945436	-0.02004938580133551	0.30902329797556694	-0.7054333183655137	-156.0	1.4158060170633135	95.0	-2.1888190390660083	277.0	0.3855421686746988	1236.0	9.771084337349398	2015.0	-0.30120481927710846	2072.0	0.43636363636363634	-480.0	-0.8045454545454546	-885.0	-0.1510204081632653	148.0	95.26867641353974	39898.0	0.9658812825798008	0.2462543194649917	-0.005192494739075867	0.08003246906860963	1.522816043696625E12	1.522816043706E12	27.351088732175242	26012.0	2136.71875	4480.0	3852.014652014652	2629.0	0.0	0.0	
0.5266759373268375	0.9510652710787705	-0.01955056951700139	0.3083709217475306	-0.7054333183655137	-144.0	1.2325999101930847	95.0	-2.2346205657835654	280.0	0.3253012048192771	1235.0	9.783132530120483	2020.0	-0.28915662650602414	2071.0	0.4354545454545454	-479.0	-0.8136363636363636	-895.0	-0.15000000000000002	147.0	95.26867641353974	39898.0	0.9655264691314849	0.2475669437826461	-0.0050891089094697115	0.08027045984118447	1.5228160437044375E12	1.522816043716E12	27.351088732175242	26012.0	2144.53125	4736.0	3835.8974358974356	2618.0	0.0	0.0	
0.5293853703146261	0.9512829747661525	-0.019056123145633964	0.3077296964719509	-1.0413111809609337	-133.0	1.0646609788953747	117.0	-2.1430175123484507	274.0	0.2530120481927711	1235.0	9.783132530120483	2026.0	-0.2530120481927711	2068.0	0.43	-473.0	-0.8190909090909091	-901.0	-0.15510204081632656	152.0	95.27463419258041	39900.0	0.9651729439127713	0.24886767756185102	-0.004985323228088219	0.08050598708193414	1.52281604371225E12	1.522816043721E12	27.351088732175242	26012.0	2152.34375	4992.0	3856.4102564102564	2632.0	0.0	0.0	
0.5320805091874958	0.9515062358280115	-0.018546861155960298	0.3070698570711034	-1.1634485855410863	-130.0	1.0188594521778174	125.0	-2.295689268073642	284.0	0.21686746987951808	1236.0	9.771084337349398	2029.0	-0.24096385542168675	2067.0	0.43	-473.0	-0.8136363636363636	-895.0	-0.15510204081632656	152.0	95.27463419258041	39900.0	0.9648195264335873	0.2501634238406397	-0.004876212171362633	0.08073267826386393	1.5228160437200625E12	1.522816043733E12	27.351088732175242	26012.0	2160.15625	5248.0	3852.014652014652	2629.0	0.0	0.0	
0.534768790129716	0.9517267954939921	-0.017920087916006546	0.3064228731472568	-1.1939829366861245	-156.0	1.4158060170633135	127.0	-2.2651549169286036	282.0	0.0963855421686747	1235.0	9.783132530120483	2039.0	-0.20481927710843376	2064.0	0.43636363636363634	-480.0	-0.8063636363636364	-887.0	-0.1489795918367347	146.0	95.27463419258041	39900.0	0.964465262868543	0.2514554351723264	-0.004734660751993316	0.08095989025296327	1.522816043727875E12	1.522816043735E12	27.351088732175242	26012.0	2167.96875	5504.0	3853.4798534798533	2630.0	0.0	0.0	
0.5374562102307796	0.9519344548104203	-0.017296441296906058	0.30581305868659514	-1.2703188145487199	-145.0	1.2478670857656036	132.0	-1.8376740008980692	254.0	0.012048192771084338	1235.0	9.783132530120483	2046.0	-0.13253012048192772	2058.0	0.43636363636363634	-480.0	-0.8154545454545454	-897.0	-0.15510204081632656	152.0	95.28357086700932	39903.0	0.9641093710703277	0.2527437439083097	-0.0045922986688626	0.0811950203061981	1.5228160437356875E12	1.52281604375E12	27.351088732175242	26012.0	2175.78125	5760.0	3835.8974358974356	2618.0	0.0	0.0	
0.5401290771907777	0.9521485027856151	-0.016626141914362444	0.3051832237331424	-1.3619218679838345	-141.0	1.1867983834755274	138.0	-2.005612932195779	265.0	-0.0963855421686747	1235.0	9.783132530120483	2055.0	-0.08433734939759037	2054.0	0.43636363636363634	-480.0	-0.8181818181818182	-900.0	-0.15408163265306124	151.0	95.26867641353974	39898.0	0.9637536798864687	0.2540271615968753	-0.004435748863182624	0.08142094207479914	1.5228160437435E12	1.522816043752E12	27.351088732175242	26012.0	2183.59375	6016.0	3857.8754578754574	2633.0	0.0	0.0	
0.5428058171496387	0.9523452127709462	-0.01592620122817405	0.3046062242087348	-1.3771890435563536	-154.0	1.3852716659182753	139.0	-1.5628648405927257	236.0	-0.14457831325301207	1234.0	9.795180722891567	2059.0	-0.03614457831325302	2050.0	0.4318181818181818	-475.0	-0.8090909090909091	-890.0	-0.15408163265306124	151.0	95.26867641353974	39898.0	0.9633957482450537	0.2553078056813184	-0.004269547884399552	0.081659828449527	1.5228160437513125E12	1.522816043754E12	27.351088732175242	26012.0	2191.40625	6272.0	3824.175824175824	2610.0	0.0	0.0	
0.5454762108567323	0.9525358929926924	-0.015230425749124765	0.30404507345477183	-1.468792096991468	-147.0	1.2784014369106418	145.0	-1.3949259092950157	225.0	-0.16867469879518074	1235.0	9.783132530120483	2061.0	0.03614457831325302	2044.0	0.43727272727272726	-481.0	-0.8054545454545454	-886.0	-0.15408163265306124	151.0	95.27761308327432	39901.0	0.963036945684155	0.2565839646719924	-0.004102609729566183	0.08190042071896078	1.522816043759125E12	1.52281604379E12	27.351088732175242	26012.0	2199.21875	6528.0	3853.4798534798533	2630.0	0.0	0.0	
0.5481564067809457	0.9527193652671597	-0.014547975036801958	0.30350315890822804	-1.3313875168387963	-140.0	1.1715312079030082	136.0	-1.226986977997306	214.0	-0.1927710843373494	1233.0	9.807228915662652	2063.0	0.07228915662650603	2041.0	0.43727272727272726	-481.0	-0.8163636363636364	-898.0	-0.15408163265306124	151.0	95.27165530266888	39899.0	0.962675099747961	0.2578627008407521	-0.003937549997948911	0.08214606223295307	1.5228160437669375E12	1.522816043792E12	27.351088732175242	26012.0	2207.03125	6784.0	3837.362637362637	2619.0	0.0	0.0	
0.5508457816313492	0.9528916720917983	-0.01383956259998493	0.3029949302630938	-1.2092501122586437	-153.0	1.3700044903457564	128.0	-0.9674449932644814	197.0	-0.21686746987951808	1234.0	9.795180722891567	2065.0	0.16867469879518074	2033.0	0.43454545454545457	-478.0	-0.8118181818181818	-893.0	-0.15408163265306124	151.0	95.27165530266888	39899.0	0.9623102768675534	0.2591426193093322	-0.003763723209357698	0.08240065703739546	1.52281604377475E12	1.522816043793E12	27.351088732175242	26012.0	2214.84375	7040.0	3856.4102564102564	2632.0	0.0	0.0	
0.5535392863613267	0.9530559303515657	-0.013155574078346938	0.30250838747443815	-1.1634485855410863	-144.0	1.2325999101930847	125.0	-0.7995060619667715	186.0	-0.22891566265060243	1232.0	9.819277108433736	2066.0	0.20481927710843376	2030.0	0.4309090909090909	-474.0	-0.8163636363636364	-898.0	-0.15306122448979592	150.0	95.26867641353974	39898.0	0.9619431497110572	0.26042220898858964	-0.003594756144828086	0.0826603140432785	1.5228160437825625E12	1.522816043794E12	27.351088732175242	26012.0	2222.65625	7296.0	3852.014652014652	2629.0	0.0	0.0	
0.5562275495716673	0.9532095217697558	-0.012498767856704273	0.30205196309499144	-1.285585990121239	-140.0	1.1715312079030082	133.0	-0.5399640772339471	169.0	-0.1927710843373494	1233.0	9.807228915662652	2063.0	0.27710843373493976	2024.0	0.4390909090909091	-483.0	-0.81	-891.0	-0.15306122448979592	150.0	95.26569752519298	39897.0	0.9615749973511664	0.26169642125338993	-0.0034314416122319014	0.08292606816155317	1.522816043790375E12	1.522816043804E12	27.351088732175242	26012.0	2230.46875	7552.0	3853.4798534798533	2630.0	0.0	0.0	
0.5589485420895343	0.953351949437185	-0.011824108939013494	0.3016293270756659	-0.8428378985181855	-153.0	1.3700044903457564	104.0	-0.20408621463852725	147.0	-0.20481927710843376	1233.0	9.807228915662652	2064.0	0.3132530120481928	2021.0	0.4390909090909091	-483.0	-0.8163636363636364	-898.0	-0.15306122448979592	150.0	95.26569752519298	39897.0	0.9612005936569683	0.2629824743831669	-0.0032616846569555095	0.08320455717085065	1.5228160437981875E12	1.522816043805E12	27.351088732175242	26012.0	2238.28125	7808.0	3849.0842490842488	2627.0	0.0	0.0	
0.5616638013406777	0.953494087161551	-0.011191520282900422	0.301203877169132	-0.9191737763807809	-137.0	1.125729681185451	109.0	-0.12775033677593184	142.0	-0.18072289156626506	1233.0	9.807228915662652	2062.0	0.3253012048192771	2020.0	0.44	-484.0	-0.8036363636363636	-884.0	-0.15306122448979592	150.0	95.26569752519298	39897.0	0.9608252053346144	0.2642657066539017	-0.0031017864252272567	0.08348017729606472	1.522816043806E12	1.522816043808E12	27.351088732175242	26012.0	2246.09375	8064.0	3841.7582417582416	2622.0	0.0	0.0	
0.5644004729259159	0.9536371145082901	-0.010594183017407074	0.30077236761128057	-0.568028738212842	-135.0	1.095195330040413	86.0	-0.15828468792097	144.0	-0.13253012048192772	1234.0	9.795180722891567	2058.0	0.3373493975903615	2019.0	0.4354545454545454	-479.0	-0.8136363636363636	-895.0	-0.15612244897959185	153.0	95.26867641353974	39898.0	0.960445064773445	0.26555887635184877	-0.0029501571354205135	0.08375593898914105	1.5228160438138125E12	1.522816043827E12	27.351088732175242	26012.0	2253.90625	8320.0	3853.4798534798533	2630.0	0.0	0.0	
0.5671392200397077	0.9537641738553926	-0.010112246174897463	0.3003858238120457	-0.6748989672204756	-111.0	0.728783116299955	93.0	0.25392905253704523	117.0	-0.012048192771084338	1235.0	9.783132530120483	2048.0	0.3493975903614458	2018.0	0.43636363636363634	-480.0	-0.8072727272727273	-888.0	-0.15612244897959185	153.0	95.26867641353974	39898.0	0.9600628355802997	0.2668484074397868	-0.002829249474220233	0.08404328962967116	1.522816043821625E12	1.522816043829E12	27.351088732175242	26012.0	2261.71875	8576.0	3853.4798534798533	2630.0	0.0	0.0	
0.5698816854793772	0.9538879666089233	-0.009670465609247716	0.3000070486731813	-0.6138302649303993	-112.0	0.7440502918724741	89.0	0.26919622810956434	116.0	0.07228915662650603	1235.0	9.783132530120483	2041.0	0.3493975903614458	2018.0	0.4390909090909091	-483.0	-0.81	-891.0	-0.15714285714285717	154.0	95.26569752519298	39897.0	0.9596782834827191	0.26813855591370434	-0.0027183744572174865	0.08433218534157229	1.5228160438294375E12	1.522816043838E12	27.351088732175242	26012.0	2269.53125	8832.0	3838.8278388278386	2620.0	0.0	0.0	
0.5726381250625805	0.9540002432700735	-0.009268692673691913	0.2996625221424263	-0.4611585092052084	-115.0	0.7898518185900313	79.0	0.4829366861248315	102.0	0.14457831325301207	1234.0	9.795180722891567	2035.0	0.3373493975903615	2019.0	0.4381818181818182	-482.0	-0.8181818181818182	-900.0	-0.15612244897959185	153.0	95.27761308327432	39901.0	0.9592899536355597	0.26943166800270935	-0.00261769254766357	0.08463160648888429	1.52281604383725E12	1.522816043846E12	27.351088732175242	26012.0	2277.34375	9088.0	3860.8058608058604	2635.0	0.0	0.0	
0.5753995213136582	0.9541177747837335	-0.008901534559509374	0.2992992390972977	-0.3695554557700939	-114.0	0.7745846430175122	73.0	0.4982038616973506	101.0	0.21686746987951808	1234.0	9.795180722891567	2029.0	0.24096385542168675	2027.0	0.43727272727272726	-481.0	-0.8009090909090909	-881.0	-0.16020408163265307	157.0	95.27761308327432	39901.0	0.9588990984096428	0.2707283236665274	-0.002525786221624344	0.08492534508524914	1.5228160438450625E12	1.522816043857E12	27.351088732175242	26012.0	2285.15625	9344.0	3854.945054945055	2631.0	0.0	0.0	
0.5781841458828593	0.9542295495014336	-0.008587564396632406	0.2989518700326625	-0.04894476874719317	-106.0	0.6524472384373595	52.0	0.6356084418500223	92.0	0.28915662650602414	1235.0	9.783132530120483	2023.0	0.22891566265060243	2028.0	0.4354545454545454	-479.0	-0.8063636363636364	-887.0	-0.15816326530612246	155.0	95.26867641353974	39898.0	0.9585031042843595	0.2720337560496293	-0.0024481608218426616	0.08522582446282084	1.522816043852875E12	1.522816043859E12	27.351088732175242	26012.0	2292.96875	9600.0	3837.362637362637	2619.0	0.0	0.0	
0.5809622132732127	0.9543366913770208	-0.008301918513896155	0.29861774501953353	-0.12528064660978858	-113.0	0.7593174674449931	57.0	0.6050740907049842	94.0	0.3855421686746988	1236.0	9.771084337349398	2015.0	0.24096385542168675	2027.0	0.44181818181818183	-486.0	-0.8072727272727273	-888.0	-0.15714285714285717	154.0	95.26569752519298	39897.0	0.9581061911054697	0.273334634703041	-0.0023777791264170795	0.08552806675910794	1.5228160438606875E12	1.522816043874E12	27.351088732175242	26012.0	2300.78125	9856.0	3837.362637362637	2619.0	0.0	0.0	
0.5837455715673313	0.9544481558969609	-0.008033035021600724	0.2982686508053301	0.04265828468792133	-110.0	0.7135159407274358	46.0	0.42186798383475516	106.0	0.42168674698795183	1234.0	9.795180722891567	2012.0	0.26506024096385544	2025.0	0.44	-484.0	-0.8118181818181818	-893.0	-0.15612244897959185	153.0	95.26569752519298	39897.0	0.9577066681271363	0.27463893313160503	-0.0023114761702985732	0.08582570309101474	1.5228160438685E12	1.522816043875E12	27.351088732175242	26012.0	2308.59375	10112.0	3856.4102564102564	2632.0	0.0	0.0	
0.5865315863335824	0.9545601003221599	-0.00774598210865527	0.2979177984513872	0.11899416255051674	-115.0	0.7898518185900313	41.0	0.4524023349797933	104.0	0.4096385542168675	1236.0	9.771084337349398	2013.0	0.2530120481927711	2026.0	0.4409090909090909	-485.0	-0.8027272727272727	-883.0	-0.15408163265306124	151.0	95.27761308327432	39901.0	0.957304906324948	0.27594434925140293	-0.0022392094448159994	0.08612211320830775	1.5228160438763125E12	1.522816043878E12	27.351088732175242	26012.0	2316.40625	10368.0	3853.4798534798533	2630.0	0.0	0.0	
0.5893258892955648	0.9546826217389467	-0.007422630830331611	0.29753318520999883	0.3327346205657839	-127.0	0.9730579254602603	27.0	0.33026493039964067	112.0	0.3734939759036145	1235.0	9.783132530120483	2016.0	0.14457831325301207	2035.0	0.43636363636363634	-480.0	-0.8018181818181818	-882.0	-0.16020408163265307	157.0	95.27165530266888	39899.0	0.9569000833923654	0.27725638595697866	-0.002155660689163914	0.08640879571404826	1.522816043884125E12	1.522816043892E12	27.351088732175242	26012.0	2324.21875	10624.0	3852.014652014652	2629.0	0.0	0.0	
0.5921142961627338	0.9547960984050526	-0.0070977950362449875	0.2971767685673156	0.19533004041311217	-125.0	0.9425235743152222	36.0	0.5440053884149079	98.0	0.3493975903614458	1235.0	9.783132530120483	2018.0	0.03614457831325302	2044.0	0.44	-484.0	-0.8054545454545454	-886.0	-0.15408163265306124	151.0	95.27165530266888	39899.0	0.9564942526606872	0.27856287788956013	-0.002070789999319687	0.08670166963639234	1.5228160438919375E12	1.522816043895E12	27.351088732175242	26012.0	2332.03125	10880.0	3837.362637362637	2619.0	0.0	0.0	
0.5948932262566078	0.9549079806438544	-0.006752701300851984	0.2968251160663722	0.10372698697799766	-144.0	1.2325999101930847	42.0	0.4829366861248315	102.0	0.3734939759036145	1234.0	9.795180722891567	2016.0	0.012048192771084338	2046.0	0.4409090909090909	-485.0	-0.8081818181818182	-889.0	-0.15612244897959185	153.0	95.27165530266888	39899.0	0.9560879514293363	0.27986433767173985	-0.0019790810375087623	0.08699347601665391	1.52281604389975E12	1.52281604394E12	27.351088732175242	26012.0	2339.84375	11136.0	3856.4102564102564	2632.0	0.0	0.0	
0.5976682303655871	0.9550139122142538	-0.006442179641369693	0.2964910214470194	0.04265828468792133	-135.0	1.095195330040413	46.0	0.6050740907049842	94.0	0.4096385542168675	1235.0	9.783132530120483	2013.0	0.07228915662650603	2041.0	0.43727272727272726	-481.0	-0.7972727272727272	-877.0	-0.15306122448979592	150.0	95.26867641353974	39898.0	0.9556803822813188	0.28116201088022047	-0.0018966175877161073	0.08728879310741662	1.5228160439075625E12	1.522816043942E12	27.351088732175242	26012.0	2347.65625	11392.0	3854.945054945055	2631.0	0.0	0.0	
0.6004434063118351	0.9551182543237491	-0.006119676685663329	0.29616156032614604	0.10372698697799766	-147.0	1.2784014369106418	42.0	0.5898069151324651	95.0	0.42168674698795183	1236.0	9.771084337349398	2012.0	0.14457831325301207	2035.0	0.4354545454545454	-479.0	-0.8	-880.0	-0.15612244897959185	153.0	95.26867641353974	39898.0	0.9552709478852008	0.2824590320761753	-0.0018097842287345546	0.08758445070984648	1.522816043915375E12	1.522816043945E12	27.351088732175242	26012.0	2355.46875	11648.0	3853.4798534798533	2630.0	0.0	0.0	
0.6032131174874197	0.955223241831402	-0.00581147534198572	0.2958289793435698	0.08845981140547858	-138.0	1.14099685675797	43.0	0.5592725639874269	97.0	0.42168674698795183	1235.0	9.783132530120483	2012.0	0.2530120481927711	2026.0	0.4381818181818182	-482.0	-0.8054545454545454	-886.0	-0.15816326530612246	155.0	95.27165530266888	39899.0	0.9548604858816039	0.28375348554014795	-0.0017263256505960587	0.08787736765238623	1.5228160439231875E12	1.522816043949E12	27.351088732175242	26012.0	2363.28125	11904.0	3850.5494505494503	2628.0	0.0	0.0	
0.6059862509799206	0.9553257264215149	-0.00546347356431915	0.29550449555602026	0.21059721598563125	-145.0	1.2478670857656036	35.0	0.5287382128423888	99.0	0.3614457831325301	1236.0	9.771084337349398	2017.0	0.3373493975903615	2019.0	0.4390909090909091	-483.0	-0.8163636363636364	-898.0	-0.15408163265306124	151.0	95.26569752519298	39897.0	0.9544476820517994	0.28504848591063886	-0.0016301820669642776	0.08817213512458558	1.522816043931E12	1.522816043949E12	27.351088732175242	26012.0	2371.09375	12160.0	3860.8058608058604	2635.0	0.0	0.0	
0.6087425029857222	0.9554345940979652	-0.005135964043642035	0.2951581919483162	0.08845981140547858	-128.0	0.9883251010327793	43.0	0.2997305792546025	114.0	0.3493975903614458	1235.0	9.783132530120483	2018.0	0.46987951807228917	2008.0	0.43272727272727274	-476.0	-0.8136363636363636	-895.0	-0.15510204081632656	152.0	95.26569752519298	39897.0	0.9540355729012868	0.28633742864942424	-0.001539214454842704	0.0884569579638105	1.5228160439388125E12	1.52281604395E12	27.351088732175242	26012.0	2378.90625	12416.0	3853.4798534798533	2630.0	0.0	0.0	
0.6115224409056879	0.9555506268586954	-0.0048142831766739055	0.2947877578656383	0.5159407274360129	-111.0	0.728783116299955	15.0	0.3760664571171979	109.0	0.3132530120481928	1235.0	9.783132530120483	2021.0	0.6024096385542169	1997.0	0.43454545454545457	-478.0	-0.8054545454545454	-886.0	-0.15918367346938778	156.0	95.27165530266888	39899.0	0.9536180869265525	0.28763906227063	-0.0014491915546077387	0.08873676795135697	1.522816043946625E12	1.522816043962E12	27.351088732175242	26012.0	2386.71875	12672.0	3863.7362637362635	2637.0	0.0	0.0	
0.6143162407099416	0.955658110193316	-0.004487542832534234	0.2944442873975738	0.7449483610237991	-127.0	0.9730579254602603	0.0	0.42186798383475516	106.0	0.3734939759036145	1235.0	9.783132530120483	2016.0	0.6987951807228916	1989.0	0.4390909090909091	-483.0	-0.8072727272727273	-888.0	-0.15408163265306124	151.0	95.26569752519298	39897.0	0.9531966629945672	0.28894417651189375	-0.0013568130218098201	0.08902552203895729	1.5228160439544375E12	1.522816043966E12	27.351088732175242	26012.0	2394.53125	12928.0	3849.0842490842488	2627.0	0.0	0.0	
0.6171234180415299	0.9557572657509047	-0.004179282359655727	0.29412681374419636	0.9434216434665472	-125.0	0.9425235743152222	-13.0	0.6356084418500223	92.0	0.39759036144578314	1236.0	9.771084337349398	2014.0	0.8433734939759037	1977.0	0.4390909090909091	-483.0	-0.8072727272727273	-888.0	-0.15408163265306124	151.0	95.26569752519298	39897.0	0.952771347782388	0.2902525750786266	-0.001269200361158338	0.08932295693494054	1.52281604396225E12	1.522816043973E12	27.351088732175242	26012.0	2402.34375	13184.0	3856.4102564102564	2632.0	0.0	0.0	
0.6199443606351512	0.9558618482554458	-0.00392245367833538	0.2937903017576019	1.279299506061967	-115.0	0.7898518185900313	-35.0	0.3760664571171979	109.0	0.4819277108433735	1236.0	9.771084337349398	2007.0	1.0	1964.0	0.43363636363636365	-477.0	-0.8163636363636364	-898.0	-0.15816326530612246	155.0	95.27463419258041	39900.0	0.952342056151577	0.2915685877061141	-0.001196474450175215	0.08961548525192856	1.5228160439700625E12	1.522816043984E12	27.351088732175242	26012.0	2410.15625	13440.0	3857.8754578754574	2633.0	0.0	0.0	
0.6227866406507833	0.9559715125596167	-0.0036554551503231417	0.2934367134871196	1.6762460709474631	-116.0	0.8051189941625504	-61.0	0.33026493039964067	112.0	0.49397590361445787	1237.0	9.759036144578314	2006.0	1.0602409638554218	1959.0	0.43636363636363634	-480.0	-0.8018181818181818	-882.0	-0.15612244897959185	153.0	95.27165530266888	39899.0	0.9519076012224417	0.2928955666833436	-0.00111997752409246	0.08990467953630366	1.522816043977875E12	1.522816043988E12	27.351088732175242	26012.0	2417.96875	13696.0	3853.4798534798533	2630.0	0.0	0.0	
0.6256454796473507	0.9560852571673069	-0.0034009582104413912	0.2930689586267641	1.996856757970364	-108.0	0.6829815895823977	-82.0	0.2844634036820834	115.0	0.5060240963855422	1236.0	9.771084337349398	2005.0	1.1204819277108435	1954.0	0.4381818181818182	-482.0	-0.8036363636363636	-884.0	-0.15714285714285717	154.0	95.27165530266888	39899.0	0.9514686758397769	0.2942310382268564	-0.001046629950334245	0.09019068469301468	1.5228160439856875E12	1.522816043999E12	27.351088732175242	26012.0	2425.78125	13952.0	3837.362637362637	2619.0	0.0	0.0	
0.6285191457366087	0.9561915610105887	-0.0031783397251978138	0.29272443835239437	2.22586439155815	-101.0	0.5761113605747641	-97.0	0.43713515940727427	105.0	0.5301204819277109	1238.0	9.74698795180723	2003.0	1.216867469879518	1946.0	0.43363636363636365	-477.0	-0.8136363636363636	-895.0	-0.15714285714285717	154.0	95.26867641353974	39898.0	0.9510255147855873	0.2955706596116096	-9.824641916454822E-4	0.09048475102291459	1.5228160439935E12	1.522816044E12	27.351088732175242	26012.0	2433.59375	14208.0	3854.945054945055	2631.0	0.0	0.0	
0.6314204565605217	0.9562990260819525	-0.0029150777957950157	0.2923759139124762	2.760215536596318	-112.0	0.7440502918724741	-132.0	0.3455321059721597	111.0	0.5060240963855422	1238.0	9.74698795180723	2005.0	1.4096385542168675	1930.0	0.4354545454545454	-479.0	-0.8154545454545454	-897.0	-0.15510204081632656	152.0	95.27165530266888	39899.0	0.9505760987106496	0.29692288689527924	-9.051073890538581E-4	0.0907802873889975	1.5228160440013125E12	1.522816044003E12	27.351088732175242	26012.0	2441.40625	14464.0	3859.340659340659	2634.0	0.0	0.0	
0.6343395818404114	0.9564127839729187	-0.00262361541731898	0.2920063411902497	3.157162101481814	-113.0	0.7593174674449931	-158.0	0.23866187696452615	118.0	0.46987951807228917	1236.0	9.771084337349398	2008.0	1.566265060240964	1917.0	0.4318181818181818	-475.0	-0.8054545454545454	-886.0	-0.15612244897959185	153.0	95.27165530266888	39899.0	0.9501219043050367	0.29828484234511016	-8.182499483939893E-4	0.0910705784210559	1.522816044009125E12	1.522816044017E12	27.351088732175242	26012.0	2449.21875	14720.0	3850.5494505494503	2628.0	0.0	0.0	
0.6373043339372148	0.9565336162767729	-0.002319431157290745	0.2916128618075443	3.9510552312528064	-108.0	0.6829815895823977	-210.0	0.16232599910193074	123.0	0.45783132530120485	1236.0	9.771084337349398	2009.0	1.6867469879518073	1907.0	0.43636363636363634	-480.0	-0.8072727272727273	-888.0	-0.15510204081632656	152.0	95.27463419258041	39900.0	0.9496585389390667	0.29966941735872943	-7.266473145130791E-4	0.09135847910115993	1.5228160440169375E12	1.522816044021E12	27.351088732175242	26012.0	2457.03125	14976.0	3837.362637362637	2619.0	0.0	0.0	
0.6403011131059628	0.9566670450603777	-0.0019707926536067662	0.29117740446635015	4.6075437808711275	-105.0	0.6371800628648404	-253.0	-0.06668163448585551	138.0	0.3855421686746988	1237.0	9.759036144578314	2015.0	1.8072289156626506	1897.0	0.44181818181818183	-486.0	-0.8163636363636364	-898.0	-0.15714285714285717	154.0	95.26867641353974	39898.0	0.9491880472672798	0.3010721793516006	-6.202271128029347E-4	0.09163628682860475	1.52281604402475E12	1.522816044034E12	27.351088732175242	26012.0	2464.84375	15232.0	3854.945054945055	2631.0	0.0	0.0	
0.6433158314866531	0.9568067332001144	-0.0015394810159314197	0.29072066541807173	5.080826223619218	-101.0	0.5761113605747641	-284.0	-0.23462056578356544	149.0	0.22891566265060243	1237.0	9.759036144578314	2028.0	2.060240963855422	1876.0	0.43727272727272726	-481.0	-0.8081818181818182	-889.0	-0.1510204081632653	148.0	95.26867641353974	39898.0	0.9487125888940946	0.3024847657375545	-4.866913435108885E-4	0.0919083962546271	1.5228160440325625E12	1.52281604404E12	27.351088732175242	26012.0	2472.65625	15488.0	3859.340659340659	2634.0	0.0	0.0	
0.6463773807210836	0.9569521755428466	-0.0010153507924696402	0.29024386778462724	5.966322406825325	-101.0	0.5761113605747641	-342.0	-0.15828468792097	144.0	0.04819277108433735	1235.0	9.783132530120483	2043.0	2.3493975903614457	1852.0	0.43454545454545457	-478.0	-0.81	-891.0	-0.15408163265306124	151.0	95.26867641353974	39898.0	0.9482275386343307	0.30392013915874405	-3.2246705951346414E-4	0.09217906489113412	1.522816044040375E12	1.522816044052E12	27.351088732175242	26012.0	2480.46875	15744.0	3852.014652014652	2629.0	0.0	0.0	
0.6494820468027704	0.9571080819030285	-3.5913568128423997E-4	0.2897308933777455	6.882352941176471	-104.0	0.6219128872923214	-402.0	-0.20408621463852725	147.0	-0.18072289156626506	1236.0	9.771084337349398	2062.0	2.63855421686747	1828.0	0.43636363636363634	-480.0	-0.8109090909090909	-892.0	-0.15612244897959185	153.0	95.27165530266888	39899.0	0.9477333881382248	0.3053781164658076	-1.1458703565451395E-4	0.09244251111716756	1.5228160440481875E12	1.522816044053E12	27.351088732175242	26012.0	2488.28125	16000.0	3837.362637362637	2619.0	0.0	0.0	
0.6526598793436819	0.9572605233857925	3.820645556364133E-4	0.2892268044179736	8.103726986977998	-98.0	0.5303098338572069	-482.0	0.20812752581948799	120.0	-0.3614457831325301	1233.0	9.807228915662652	2077.0	2.927710843373494	1804.0	0.4390909090909091	-483.0	-0.8136363636363636	-895.0	-0.15408163265306124	151.0	95.27165530266888	39899.0	0.947225227044596	0.30686787774934743	1.22477984297011E-4	0.09271709580799206	1.522816044056E12	1.522816044079E12	27.351088732175242	26012.0	2496.09375	16256.0	3857.8754578754574	2633.0	0.0	0.0	
0.6559000726859925	0.9574137092017491	0.0012356556744084614	0.28871692466428905	9.24876515491693	-96.0	0.4997754827121687	-557.0	0.46766951055231243	103.0	-0.5783132530120483	1236.0	9.771084337349398	2095.0	3.168674698795181	1784.0	0.43636363636363634	-480.0	-0.8118181818181818	-893.0	-0.1510204081632653	148.0	95.26867641353974	39898.0	0.9467046316943525	0.30838582458569164	3.98008395319671E-4	0.09299658656306102	1.5228160440638125E12	1.52281604408E12	27.351088732175242	26012.0	2503.90625	16512.0	3856.4102564102564	2632.0	0.0	0.0	
0.6592229346634272	0.9575786632595924	0.0021470508084675865	0.28816400511305684	10.668612483161205	-62.0	-0.01930848675348014	-650.0	0.8493488998652895	78.0	-0.8072289156626506	1236.0	9.771084337349398	2114.0	3.240963855421687	1778.0	0.4309090909090909	-474.0	-0.8072727272727273	-888.0	-0.1510204081632653	148.0	95.27033433765662	39898.0	0.946168173421525	0.3099446909419407	6.9494760566394E-4	0.09327160987623805	1.522816044071625E12	1.522816044091E12	27.35713641113881	26013.0	2511.71875	16768.0	3852.014652014652	2629.0	0.0	0.0	
