left thigh	left thigh	left thigh	left thigh	left thigh	left thigh	left thigh	left thigh	left thigh	left thigh	left thigh	left thigh	left thigh	left thigh	left thigh	left thigh	left thigh	left thigh	left thigh	left thigh	left thigh	left thigh	Annotation	Annotation	
Gyroscope X	Gyroscope X	Gyroscope Y	Gyroscope Y	Gyroscope Z	Gyroscope Z	Low Noise Accelerometer X	Low Noise Accelerometer X	Low Noise Accelerometer Y	Low Noise Accelerometer Y	Low Noise Accelerometer Z	Low Noise Accelerometer Z	Magnetometer X	Magnetometer X	Magnetometer Y	Magnetometer Y	Magnetometer Z	Magnetometer Z	SyncTimestamp	SystemTimestamp	Timestamp	Timestamp	Level	Pulse	
CAL	RAW	CAL	RAW	CAL	RAW	CAL	RAW	CAL	RAW	CAL	RAW	CAL	RAW	CAL	RAW	CAL	RAW	CAL	UNCAL	CAL	RAW	no format	no format	
deg/s	No Units	deg/s	No Units	deg/s	No Units	m/s^2	No Units	m/s^2	No Units	m/s^2	No Units	local flux	No Units	local flux	No Units	local flux	No Units	mSecs	mSecs	mSecs	No Units	no unit	no unit	
-0.6870229007633587	-19.0	0.2900763358778626	45.0	1.6030534351145038	-105.0	0.27710843373493976	1286.0	9.168674698795181	2024.0	0.24096385542168675	2027.0	-0.42727272727272725	470.0	-0.019090909090909092	-21.0	-0.22551020408163266	221.0	1.52289247741125E12	1.522892477429E12	1089.84375	35712.0	0.0	0.0	
-0.564885496183206	-40.0	0.6106870229007634	37.0	1.7709923664122136	-116.0	0.28915662650602414	1285.0	9.180722891566266	2023.0	0.2530120481927711	2026.0	-0.4354545454545454	479.0	-0.019090909090909092	-21.0	-0.22755102040816327	223.0	1.5228924774151563E12	1.52289247743E12	1093.75	35840.0	0.0	0.0	
-0.47328244274809156	-38.0	0.5801526717557252	31.0	1.66412213740458	-109.0	0.28915662650602414	1284.0	9.19277108433735	2023.0	0.22891566265060243	2028.0	-0.4254545454545455	468.0	-0.031818181818181815	-35.0	-0.23367346938775513	229.0	1.5228924774190625E12	1.52289247743E12	1097.65625	35968.0	0.0	0.0	
-0.7633587786259541	-16.0	0.24427480916030533	50.0	1.8931297709923662	-124.0	0.27710843373493976	1286.0	9.168674698795181	2024.0	0.22891566265060243	2028.0	-0.4263636363636364	469.0	-0.02909090909090909	-32.0	-0.2295918367346939	225.0	1.5228924774229688E12	1.522892477431E12	1101.5625	36096.0	0.0	0.0	
-0.564885496183206	-17.0	0.2595419847328244	37.0	1.8625954198473282	-122.0	0.3132530120481928	1287.0	9.156626506024097	2021.0	0.20481927710843376	2030.0	-0.4263636363636364	469.0	-0.02909090909090909	-32.0	-0.2295918367346939	225.0	1.522892477426875E12	1.522892477432E12	1105.46875	36224.0	0.0	0.0	
-0.32061068702290074	-28.0	0.42748091603053434	21.0	1.7251908396946565	-113.0	0.3734939759036145	1285.0	9.180722891566266	2016.0	0.1927710843373494	2031.0	-0.43454545454545457	478.0	-0.02181818181818182	-24.0	-0.22448979591836737	220.0	1.5228924774307813E12	1.522892477442E12	1109.375	36352.0	0.0	0.0	
-0.366412213740458	-29.0	0.4427480916030534	24.0	1.7709923664122136	-116.0	0.3734939759036145	1283.0	9.204819277108435	2016.0	0.18072289156626506	2032.0	-0.42818181818181816	471.0	-0.01818181818181818	-20.0	-0.22244897959183677	218.0	1.5228924774346875E12	1.522892477442E12	1113.28125	36480.0	0.0	0.0	
-0.4580152671755725	-33.0	0.5038167938931297	30.0	1.8473282442748091	-121.0	0.3493975903614458	1285.0	9.180722891566266	2018.0	0.18072289156626506	2032.0	-0.42727272727272725	470.0	-0.02090909090909091	-23.0	-0.2306122448979592	226.0	1.5228924774385938E12	1.522892477474E12	1117.1875	36608.0	0.0	0.0	
-0.564885496183206	-39.0	0.5954198473282443	37.0	1.5877862595419847	-104.0	0.3373493975903615	1282.0	9.216867469879519	2019.0	0.18072289156626506	2032.0	-0.43454545454545457	478.0	-0.02090909090909091	-23.0	-0.22551020408163266	221.0	1.5228924774425E12	1.522892477479E12	1121.09375	36736.0	0.0	0.0	
-0.13740458015267176	-21.0	0.32061068702290074	9.0	1.6793893129770991	-110.0	0.3253012048192771	1283.0	9.204819277108435	2020.0	0.1566265060240964	2034.0	-0.43	473.0	-0.02727272727272727	-30.0	-0.2326530612244898	228.0	1.5228924774464063E12	1.522892477479E12	1125.0	36864.0	0.0	0.0	
-0.21374045801526717	-26.0	0.3969465648854962	14.0	1.7557251908396947	-115.0	0.30120481927710846	1285.0	9.180722891566266	2022.0	0.1566265060240964	2034.0	-0.43	473.0	-0.01	-11.0	-0.2326530612244898	228.0	1.5228924774503125E12	1.522892477479E12	1128.90625	36992.0	0.0	0.0	
-0.16793893129770993	-19.0	0.2900763358778626	11.0	1.618320610687023	-106.0	0.3253012048192771	1284.0	9.19277108433735	2020.0	0.14457831325301207	2035.0	-0.4263636363636364	469.0	-0.01	-11.0	-0.23163265306122452	227.0	1.5228924774542188E12	1.52289247748E12	1132.8125	37120.0	0.0	0.0	
-0.16793893129770993	-26.0	0.3969465648854962	11.0	1.5572519083969465	-102.0	0.3373493975903615	1284.0	9.19277108433735	2019.0	0.12048192771084337	2037.0	-0.42454545454545456	467.0	-0.024545454545454544	-27.0	-0.22755102040816327	223.0	1.522892477458125E12	1.52289247748E12	1136.71875	37248.0	0.0	0.0	
-0.15267175572519084	-23.0	0.3511450381679389	10.0	1.6793893129770991	-110.0	0.3132530120481928	1286.0	9.168674698795181	2021.0	0.12048192771084337	2037.0	-0.4254545454545455	468.0	-0.013636363636363636	-15.0	-0.22755102040816327	223.0	1.5228924774620313E12	1.52289247748E12	1140.625	37376.0	0.0	0.0	
-0.3053435114503817	-31.0	0.47328244274809156	20.0	1.618320610687023	-106.0	0.30120481927710846	1284.0	9.19277108433735	2022.0	0.12048192771084337	2037.0	-0.43	473.0	-0.007272727272727273	-8.0	-0.22653061224489798	222.0	1.5228924774659375E12	1.522892477481E12	1144.53125	37504.0	0.0	0.0	
-0.2748091603053435	-28.0	0.42748091603053434	18.0	1.5114503816793892	-99.0	0.27710843373493976	1286.0	9.168674698795181	2024.0	0.10843373493975904	2038.0	-0.4354545454545454	479.0	-0.022727272727272728	-25.0	-0.22551020408163266	221.0	1.5228924774698438E12	1.522892477492E12	1148.4375	37632.0	0.0	0.0	
-0.24427480916030533	-23.0	0.3511450381679389	16.0	1.5267175572519083	-100.0	0.28915662650602414	1285.0	9.180722891566266	2023.0	0.12048192771084337	2037.0	-0.42454545454545456	467.0	-0.012727272727272728	-14.0	-0.22755102040816327	223.0	1.52289247747375E12	1.522892477493E12	1152.34375	37760.0	0.0	0.0	
-0.0916030534351145	-19.0	0.2900763358778626	6.0	1.6793893129770991	-110.0	0.3132530120481928	1283.0	9.204819277108435	2021.0	0.12048192771084337	2037.0	-0.42454545454545456	467.0	-0.012727272727272728	-14.0	-0.22755102040816327	223.0	1.5228924774776563E12	1.522892477493E12	1156.25	37888.0	0.0	0.0	
-0.549618320610687	-28.0	0.42748091603053434	36.0	1.6030534351145038	-105.0	0.3253012048192771	1285.0	9.180722891566266	2020.0	0.13253012048192772	2036.0	-0.4318181818181818	475.0	-0.02090909090909091	-23.0	-0.2326530612244898	228.0	1.5228924774815625E12	1.522892477494E12	1160.15625	38016.0	0.0	0.0	
-0.24427480916030533	-29.0	0.4427480916030534	16.0	1.6030534351145038	-105.0	0.28915662650602414	1283.0	9.204819277108435	2023.0	0.14457831325301207	2035.0	-0.4354545454545454	479.0	-0.02727272727272727	-30.0	-0.22551020408163266	221.0	1.5228924774854688E12	1.522892477495E12	1164.0625	38144.0	0.0	0.0	
-0.32061068702290074	-25.0	0.38167938931297707	21.0	1.450381679389313	-95.0	0.27710843373493976	1284.0	9.19277108433735	2024.0	0.0963855421686747	2039.0	-0.43454545454545457	478.0	-0.02727272727272727	-30.0	-0.22346938775510206	219.0	1.522892477489375E12	1.522892477501E12	1167.96875	38272.0	0.0	0.0	
-0.2748091603053435	-21.0	0.32061068702290074	18.0	1.6793893129770991	-110.0	0.28915662650602414	1285.0	9.180722891566266	2023.0	0.08433734939759037	2040.0	-0.4209090909090909	463.0	-0.017272727272727273	-19.0	-0.22755102040816327	223.0	1.5228924774932813E12	1.522892477504E12	1171.875	38400.0	0.0	0.0	
-0.0916030534351145	-26.0	0.3969465648854962	6.0	1.5114503816793892	-99.0	0.30120481927710846	1285.0	9.180722891566266	2022.0	0.07228915662650603	2041.0	-0.43363636363636365	477.0	-0.03	-33.0	-0.2285714285714286	224.0	1.5228924774971875E12	1.522892477505E12	1175.78125	38528.0	0.0	0.0	
-0.33587786259541985	-24.0	0.366412213740458	22.0	1.816793893129771	-119.0	0.28915662650602414	1284.0	9.19277108433735	2023.0	0.060240963855421686	2042.0	-0.4309090909090909	474.0	-0.024545454545454544	-27.0	-0.22448979591836737	220.0	1.5228924775010938E12	1.52289247751E12	1179.6875	38656.0	0.0	0.0	
-0.16793893129770993	-30.0	0.4580152671755725	11.0	1.6335877862595418	-107.0	0.3253012048192771	1285.0	9.180722891566266	2020.0	0.04819277108433735	2043.0	-0.4309090909090909	474.0	-0.024545454545454544	-27.0	-0.22448979591836737	220.0	1.522892477505E12	1.522892477511E12	1183.59375	38784.0	0.0	0.0	
-0.2748091603053435	-30.0	0.4580152671755725	18.0	1.5267175572519083	-100.0	0.28915662650602414	1285.0	9.180722891566266	2023.0	0.04819277108433735	2043.0	-0.4309090909090909	474.0	-0.02181818181818182	-24.0	-0.2295918367346939	225.0	1.5228924775089063E12	1.522892477511E12	1187.5	38912.0	0.0	0.0	
-0.07633587786259542	-37.0	0.564885496183206	5.0	1.4809160305343512	-97.0	0.22891566265060243	1284.0	9.19277108433735	2028.0	0.03614457831325302	2044.0	-0.43272727272727274	476.0	-0.03	-33.0	-0.22653061224489798	222.0	1.5228924775128125E12	1.522892477528E12	1191.40625	39040.0	0.0	0.0	
-0.1984732824427481	-33.0	0.5038167938931297	13.0	1.7251908396946565	-113.0	0.22891566265060243	1285.0	9.180722891566266	2028.0	0.03614457831325302	2044.0	-0.4318181818181818	475.0	-0.02181818181818182	-24.0	-0.22755102040816327	223.0	1.5228924775167188E12	1.522892477528E12	1195.3125	39168.0	0.0	0.0	
-0.21374045801526717	-26.0	0.3969465648854962	14.0	1.8015267175572518	-118.0	0.27710843373493976	1285.0	9.180722891566266	2024.0	0.03614457831325302	2044.0	-0.43	473.0	-0.019090909090909092	-21.0	-0.2295918367346939	225.0	1.522892477520625E12	1.522892477529E12	1199.21875	39296.0	0.0	0.0	
-0.3053435114503817	-22.0	0.33587786259541985	20.0	1.66412213740458	-109.0	0.3373493975903615	1284.0	9.19277108433735	2019.0	0.03614457831325302	2044.0	-0.42272727272727273	465.0	-0.012727272727272728	-14.0	-0.23571428571428574	231.0	1.5228924775245313E12	1.522892477531E12	1203.125	39424.0	0.0	0.0	
-0.2595419847328244	-28.0	0.42748091603053434	17.0	1.7404580152671756	-114.0	0.3493975903614458	1283.0	9.204819277108435	2018.0	0.04819277108433735	2043.0	-0.42818181818181816	471.0	-0.02181818181818182	-24.0	-0.22755102040816327	223.0	1.5228924775284375E12	1.522892477532E12	1207.03125	39552.0	0.0	0.0	
-0.061068702290076333	-30.0	0.4580152671755725	4.0	1.450381679389313	-95.0	0.3253012048192771	1284.0	9.19277108433735	2020.0	0.060240963855421686	2042.0	-0.42818181818181816	471.0	-0.02181818181818182	-24.0	-0.22755102040816327	223.0	1.5228924775323438E12	1.522892477533E12	1210.9375	39680.0	0.0	0.0	
-0.2748091603053435	-41.0	0.6259541984732824	18.0	1.5419847328244274	-101.0	0.28915662650602414	1284.0	9.19277108433735	2023.0	0.03614457831325302	2044.0	-0.43	473.0	-0.019090909090909092	-21.0	-0.2285714285714286	224.0	1.52289247753625E12	1.522892477546E12	1214.84375	39808.0	0.0	0.0	
-0.3511450381679389	-27.0	0.41221374045801523	23.0	1.5267175572519083	-100.0	0.26506024096385544	1284.0	9.19277108433735	2025.0	0.03614457831325302	2044.0	-0.43636363636363634	480.0	-0.031818181818181815	-35.0	-0.2285714285714286	224.0	1.5228924775401563E12	1.522892477547E12	1218.75	39936.0	0.0	0.0	
-0.1984732824427481	-27.0	0.41221374045801523	13.0	1.7251908396946565	-113.0	0.28915662650602414	1286.0	9.168674698795181	2023.0	0.03614457831325302	2044.0	-0.4318181818181818	475.0	-0.02909090909090909	-32.0	-0.2306122448979592	226.0	1.5228924775440625E12	1.522892477548E12	1222.65625	40064.0	0.0	0.0	
-0.33587786259541985	-41.0	0.6259541984732824	22.0	1.8625954198473282	-122.0	0.30120481927710846	1284.0	9.19277108433735	2022.0	0.04819277108433735	2043.0	-0.4318181818181818	475.0	-0.014545454545454545	-16.0	-0.2285714285714286	224.0	1.5228924775479688E12	1.52289247756E12	1226.5625	40192.0	0.0	0.0	
-0.0916030534351145	-31.0	0.47328244274809156	6.0	1.8778625954198473	-123.0	0.28915662650602414	1284.0	9.19277108433735	2023.0	0.04819277108433735	2043.0	-0.43727272727272726	481.0	-0.031818181818181815	-35.0	-0.22653061224489798	222.0	1.522892477551875E12	1.522892477561E12	1230.46875	40320.0	0.0	0.0	
-0.24427480916030533	-36.0	0.549618320610687	16.0	1.5877862595419847	-104.0	0.30120481927710846	1284.0	9.19277108433735	2022.0	0.04819277108433735	2043.0	-0.43	473.0	-0.024545454545454544	-27.0	-0.2295918367346939	225.0	1.5228924775557813E12	1.522892477562E12	1234.375	40448.0	0.0	0.0	
-0.12213740458015267	-36.0	0.549618320610687	8.0	1.5572519083969465	-102.0	0.3132530120481928	1285.0	9.180722891566266	2021.0	0.060240963855421686	2042.0	-0.43	473.0	-0.024545454545454544	-27.0	-0.2295918367346939	225.0	1.5228924775596875E12	1.522892477564E12	1238.28125	40576.0	0.0	0.0	
-0.13740458015267176	-31.0	0.47328244274809156	9.0	1.5114503816793892	-99.0	0.27710843373493976	1283.0	9.204819277108435	2024.0	0.03614457831325302	2044.0	-0.43363636363636365	477.0	-0.024545454545454544	-27.0	-0.22653061224489798	222.0	1.5228924775635938E12	1.522892477576E12	1242.1875	40704.0	0.0	0.0	
-0.061068702290076333	-20.0	0.3053435114503817	4.0	1.648854961832061	-108.0	0.24096385542168675	1284.0	9.19277108433735	2027.0	0.03614457831325302	2044.0	-0.4318181818181818	475.0	-0.031818181818181815	-35.0	-0.22448979591836737	220.0	1.5228924775675E12	1.522892477577E12	1246.09375	40832.0	0.0	0.0	
-0.3511450381679389	-28.0	0.42748091603053434	23.0	1.5267175572519083	-100.0	0.20481927710843376	1285.0	9.180722891566266	2030.0	0.03614457831325302	2044.0	-0.42727272727272725	470.0	-0.026363636363636363	-29.0	-0.2326530612244898	228.0	1.5228924775714063E12	1.522892477584E12	1250.0	40960.0	0.0	0.0	
0.12213740458015267	-19.0	0.2900763358778626	-8.0	1.450381679389313	-95.0	0.20481927710843376	1284.0	9.19277108433735	2030.0	0.03614457831325302	2044.0	-0.42727272727272725	470.0	-0.019090909090909092	-21.0	-0.22448979591836737	220.0	1.5228924775753125E12	1.52289247759E12	1253.90625	41088.0	0.0	0.0	
-0.030534351145038167	-33.0	0.5038167938931297	2.0	1.8625954198473282	-122.0	0.1927710843373494	1283.0	9.204819277108435	2031.0	0.03614457831325302	2044.0	-0.4290909090909091	472.0	-0.014545454545454545	-16.0	-0.22653061224489798	222.0	1.5228924775792188E12	1.522892477591E12	1257.8125	41216.0	0.0	0.0	
-0.2595419847328244	-14.0	0.21374045801526717	17.0	1.6030534351145038	-105.0	0.16867469879518074	1285.0	9.180722891566266	2033.0	0.04819277108433735	2043.0	-0.43	473.0	-0.03090909090909091	-34.0	-0.23163265306122452	227.0	1.522892477583125E12	1.522892477592E12	1261.71875	41344.0	0.0	0.0	
-0.2900763358778626	-31.0	0.47328244274809156	19.0	1.6946564885496183	-111.0	0.16867469879518074	1285.0	9.180722891566266	2033.0	0.03614457831325302	2044.0	-0.43	473.0	-0.03090909090909091	-34.0	-0.23163265306122452	227.0	1.5228924775870313E12	1.522892477626E12	1265.625	41472.0	0.0	0.0	
-0.1984732824427481	-33.0	0.5038167938931297	13.0	1.7099236641221374	-112.0	0.13253012048192772	1284.0	9.19277108433735	2036.0	0.012048192771084338	2046.0	-0.42727272727272725	470.0	-0.0027272727272727275	-3.0	-0.2285714285714286	224.0	1.5228924775909375E12	1.522892477627E12	1269.53125	41600.0	0.0	0.0	
-0.16793893129770993	-17.0	0.2595419847328244	11.0	1.648854961832061	-108.0	0.14457831325301207	1285.0	9.180722891566266	2035.0	0.0	2047.0	-0.4354545454545454	479.0	-0.026363636363636363	-29.0	-0.22755102040816327	223.0	1.5228924775948438E12	1.522892477628E12	1273.4375	41728.0	0.0	0.0	
-0.21374045801526717	-8.0	0.12213740458015267	14.0	1.8015267175572518	-118.0	0.24096385542168675	1286.0	9.168674698795181	2027.0	0.012048192771084338	2046.0	-0.4290909090909091	472.0	-0.026363636363636363	-29.0	-0.22755102040816327	223.0	1.52289247759875E12	1.52289247763E12	1277.34375	41856.0	0.0	0.0	
-0.10687022900763359	-15.0	0.22900763358778625	7.0	1.9083969465648853	-125.0	0.28915662650602414	1284.0	9.19277108433735	2023.0	0.012048192771084338	2046.0	-0.4254545454545455	468.0	-0.0018181818181818182	-2.0	-0.22551020408163266	221.0	1.5228924776026563E12	1.522892477631E12	1281.25	41984.0	0.0	0.0	
-0.04580152671755725	-32.0	0.48854961832061067	3.0	1.7099236641221374	-112.0	0.3132530120481928	1285.0	9.180722891566266	2021.0	0.0	2047.0	-0.43272727272727274	476.0	-0.023636363636363636	-26.0	-0.23367346938775513	229.0	1.5228924776065625E12	1.522892477632E12	1285.15625	42112.0	0.0	0.0	
-0.030534351145038167	-13.0	0.1984732824427481	2.0	1.7404580152671756	-114.0	0.3132530120481928	1285.0	9.180722891566266	2021.0	-0.024096385542168676	2049.0	-0.4309090909090909	474.0	-0.03	-33.0	-0.2285714285714286	224.0	1.5228924776104688E12	1.522892477633E12	1289.0625	42240.0	0.0	0.0	
-0.183206106870229	-30.0	0.4580152671755725	12.0	1.8473282442748091	-121.0	0.3373493975903615	1285.0	9.180722891566266	2019.0	-0.024096385542168676	2049.0	-0.4309090909090909	474.0	-0.03	-33.0	-0.2285714285714286	224.0	1.522892477614375E12	1.522892477634E12	1292.96875	42368.0	0.0	0.0	
-0.07633587786259542	-21.0	0.32061068702290074	5.0	1.648854961832061	-108.0	0.3253012048192771	1283.0	9.204819277108435	2020.0	-0.03614457831325302	2050.0	-0.43636363636363634	480.0	-0.02181818181818182	-24.0	-0.22551020408163266	221.0	1.5228924776182813E12	1.522892477635E12	1296.875	42496.0	0.0	0.0	
-0.38167938931297707	-38.0	0.5801526717557252	25.0	1.66412213740458	-109.0	0.3373493975903615	1283.0	9.204819277108435	2019.0	-0.04819277108433735	2051.0	-0.4309090909090909	474.0	-0.026363636363636363	-29.0	-0.2285714285714286	224.0	1.5228924776221875E12	1.522892477636E12	1300.78125	42624.0	0.0	0.0	
-0.183206106870229	-35.0	0.5343511450381679	12.0	1.5725190839694656	-103.0	0.3132530120481928	1283.0	9.204819277108435	2021.0	-0.07228915662650603	2053.0	-0.4309090909090909	474.0	-0.02090909090909091	-23.0	-0.22448979591836737	220.0	1.5228924776260938E12	1.522892477637E12	1304.6875	42752.0	0.0	0.0	
-0.2748091603053435	-49.0	0.7480916030534351	18.0	1.7251908396946565	-113.0	0.26506024096385544	1283.0	9.204819277108435	2025.0	-0.060240963855421686	2052.0	-0.43454545454545457	478.0	-0.02090909090909091	-23.0	-0.22346938775510206	219.0	1.52289247763E12	1.522892477638E12	1308.59375	42880.0	0.0	0.0	
-0.0916030534351145	-27.0	0.41221374045801523	6.0	1.648854961832061	-108.0	0.26506024096385544	1284.0	9.19277108433735	2025.0	-0.07228915662650603	2053.0	-0.43636363636363634	480.0	-0.03090909090909091	-34.0	-0.2326530612244898	228.0	1.5228924776339063E12	1.522892477649E12	1312.5	43008.0	0.0	0.0	
-0.32061068702290074	-44.0	0.6717557251908397	21.0	1.5114503816793892	-99.0	0.27710843373493976	1285.0	9.180722891566266	2024.0	-0.08433734939759037	2054.0	-0.43636363636363634	480.0	-0.024545454545454544	-27.0	-0.2326530612244898	228.0	1.5228924776378125E12	1.52289247765E12	1316.40625	43136.0	0.0	0.0	
-0.366412213740458	-37.0	0.564885496183206	24.0	1.7099236641221374	-112.0	0.27710843373493976	1285.0	9.180722891566266	2024.0	-0.0963855421686747	2055.0	-0.4290909090909091	472.0	-0.024545454545454544	-27.0	-0.22653061224489798	222.0	1.5228924776417188E12	1.522892477651E12	1320.3125	43264.0	0.0	0.0	
-0.3511450381679389	-37.0	0.564885496183206	23.0	1.5572519083969465	-102.0	0.27710843373493976	1284.0	9.19277108433735	2024.0	-0.12048192771084337	2057.0	-0.42363636363636364	466.0	-0.0036363636363636364	-4.0	-0.22448979591836737	220.0	1.522892477645625E12	1.522892477653E12	1324.21875	43392.0	0.0	0.0	
-0.3053435114503817	-27.0	0.41221374045801523	20.0	1.5267175572519083	-100.0	0.28915662650602414	1284.0	9.19277108433735	2023.0	-0.14457831325301207	2059.0	-0.4263636363636364	469.0	-0.0027272727272727275	-3.0	-0.21938775510204084	215.0	1.5228924776495313E12	1.522892477654E12	1328.125	43520.0	0.0	0.0	
-0.04580152671755725	-38.0	0.5801526717557252	3.0	1.5572519083969465	-102.0	0.27710843373493976	1286.0	9.168674698795181	2024.0	-0.1566265060240964	2060.0	-0.4263636363636364	469.0	-0.017272727272727273	-19.0	-0.2285714285714286	224.0	1.5228924776534375E12	1.522892477654E12	1332.03125	43648.0	0.0	0.0	
-0.41221374045801523	-36.0	0.549618320610687	27.0	1.5572519083969465	-102.0	0.2530120481927711	1284.0	9.19277108433735	2026.0	-0.14457831325301207	2059.0	-0.4354545454545454	479.0	-0.023636363636363636	-26.0	-0.22244897959183677	218.0	1.5228924776573438E12	1.522892477668E12	1335.9375	43776.0	0.0	0.0	
-0.4427480916030534	-27.0	0.41221374045801523	29.0	1.8015267175572518	-118.0	0.24096385542168675	1285.0	9.180722891566266	2027.0	-0.13253012048192772	2058.0	-0.4309090909090909	474.0	-0.023636363636363636	-26.0	-0.22142857142857145	217.0	1.52289247766125E12	1.522892477669E12	1339.84375	43904.0	0.0	0.0	
-0.7022900763358778	-35.0	0.5343511450381679	46.0	1.618320610687023	-106.0	0.2530120481927711	1284.0	9.19277108433735	2026.0	-0.13253012048192772	2058.0	-0.4309090909090909	474.0	-0.023636363636363636	-26.0	-0.22142857142857145	217.0	1.5228924776651563E12	1.522892477671E12	1343.75	44032.0	0.0	0.0	
-0.5954198473282443	-32.0	0.48854961832061067	39.0	1.5877862595419847	-104.0	0.28915662650602414	1285.0	9.180722891566266	2023.0	-0.10843373493975904	2056.0	-0.42272727272727273	465.0	-0.026363636363636363	-29.0	-0.22653061224489798	222.0	1.5228924776690625E12	1.522892477681E12	1347.65625	44160.0	0.0	0.0	
-0.5190839694656488	-35.0	0.5343511450381679	34.0	1.66412213740458	-109.0	0.3493975903614458	1285.0	9.180722891566266	2018.0	-0.10843373493975904	2056.0	-0.43272727272727274	476.0	-0.024545454545454544	-27.0	-0.22448979591836737	220.0	1.5228924776729688E12	1.522892477681E12	1351.5625	44288.0	0.0	0.0	
-0.7786259541984732	-27.0	0.41221374045801523	51.0	1.83206106870229	-120.0	0.45783132530120485	1286.0	9.168674698795181	2009.0	-0.0963855421686747	2055.0	-0.43272727272727274	476.0	-0.03090909090909091	-34.0	-0.2285714285714286	224.0	1.522892477676875E12	1.522892477682E12	1355.46875	44416.0	0.0	0.0	
-0.5954198473282443	-25.0	0.38167938931297707	39.0	1.83206106870229	-120.0	0.45783132530120485	1284.0	9.19277108433735	2009.0	-0.08433734939759037	2054.0	-0.42818181818181816	471.0	-0.02	-22.0	-0.22653061224489798	222.0	1.5228924776807813E12	1.522892477703E12	1359.375	44544.0	0.0	0.0	
-0.7633587786259541	-39.0	0.5954198473282443	50.0	1.6946564885496183	-111.0	0.45783132530120485	1283.0	9.204819277108435	2009.0	-0.0963855421686747	2055.0	-0.43636363636363634	480.0	-0.02727272727272727	-30.0	-0.22346938775510206	219.0	1.5228924776846875E12	1.522892477704E12	1363.28125	44672.0	0.0	0.0	
-0.6259541984732824	-37.0	0.564885496183206	41.0	1.4351145038167938	-94.0	0.4096385542168675	1283.0	9.204819277108435	2013.0	-0.08433734939759037	2054.0	-0.43727272727272726	481.0	-0.03090909090909091	-34.0	-0.2295918367346939	225.0	1.5228924776885938E12	1.522892477705E12	1367.1875	44800.0	0.0	0.0	
-0.7480916030534351	-55.0	0.8396946564885496	49.0	1.2671755725190839	-83.0	0.3132530120481928	1283.0	9.204819277108435	2021.0	-0.0963855421686747	2055.0	-0.43727272727272726	481.0	-0.03090909090909091	-34.0	-0.2295918367346939	225.0	1.5228924776925E12	1.522892477706E12	1371.09375	44928.0	0.0	0.0	
-0.8854961832061068	-45.0	0.6870229007633587	58.0	1.4961832061068703	-98.0	0.30120481927710846	1284.0	9.19277108433735	2022.0	-0.07228915662650603	2053.0	-0.4218181818181818	464.0	-0.017272727272727273	-19.0	-0.22755102040816327	223.0	1.5228924776964063E12	1.522892477707E12	1375.0	45056.0	0.0	0.0	
-0.7175572519083969	-34.0	0.5190839694656488	47.0	1.4809160305343512	-97.0	0.28915662650602414	1284.0	9.19277108433735	2023.0	-0.07228915662650603	2053.0	-0.43272727272727274	476.0	-0.03	-33.0	-0.22551020408163266	221.0	1.5228924777003125E12	1.522892477708E12	1378.90625	45184.0	0.0	0.0	
-0.6870229007633587	-43.0	0.6564885496183206	45.0	1.618320610687023	-106.0	0.3373493975903615	1284.0	9.19277108433735	2019.0	-0.060240963855421686	2052.0	-0.43363636363636365	477.0	-0.028181818181818183	-31.0	-0.2285714285714286	224.0	1.5228924777042188E12	1.522892477714E12	1382.8125	45312.0	0.0	0.0	
-0.9007633587786259	-49.0	0.7480916030534351	59.0	1.5572519083969465	-102.0	0.3855421686746988	1285.0	9.180722891566266	2015.0	-0.03614457831325302	2050.0	-0.43	473.0	-0.02181818181818182	-24.0	-0.2295918367346939	225.0	1.522892477708125E12	1.522892477715E12	1386.71875	45440.0	0.0	0.0	
-0.564885496183206	-67.0	1.0229007633587786	37.0	1.5877862595419847	-104.0	0.3855421686746988	1284.0	9.19277108433735	2015.0	-0.03614457831325302	2050.0	-0.4354545454545454	479.0	-0.03	-33.0	-0.22551020408163266	221.0	1.5228924777120313E12	1.522892477716E12	1390.625	45568.0	0.0	0.0	
-0.7786259541984732	-42.0	0.6412213740458015	51.0	1.4351145038167938	-94.0	0.3734939759036145	1283.0	9.204819277108435	2016.0	-0.04819277108433735	2051.0	-0.43	473.0	-0.015454545454545455	-17.0	-0.22448979591836737	220.0	1.5228924777159375E12	1.522892477729E12	1394.53125	45696.0	0.0	0.0	
-0.916030534351145	-59.0	0.9007633587786259	60.0	1.5725190839694656	-103.0	0.30120481927710846	1284.0	9.19277108433735	2022.0	-0.04819277108433735	2051.0	-0.43	473.0	-0.015454545454545455	-17.0	-0.22448979591836737	220.0	1.5228924777198438E12	1.522892477731E12	1398.4375	45824.0	0.0	0.0	
-0.7633587786259541	-52.0	0.7938931297709924	50.0	1.3740458015267174	-90.0	0.24096385542168675	1284.0	9.19277108433735	2027.0	-0.07228915662650603	2053.0	-0.42818181818181816	471.0	-0.022727272727272728	-25.0	-0.2295918367346939	225.0	1.52289247772375E12	1.522892477731E12	1402.34375	45952.0	0.0	0.0	
-0.8702290076335878	-47.0	0.7175572519083969	57.0	1.4198473282442747	-93.0	0.22891566265060243	1283.0	9.204819277108435	2028.0	-0.12048192771084337	2057.0	-0.43272727272727274	476.0	-0.03	-33.0	-0.22653061224489798	222.0	1.5228924777276563E12	1.522892477738E12	1406.25	46080.0	0.0	0.0	
-0.6259541984732824	-30.0	0.4580152671755725	41.0	1.5572519083969465	-102.0	0.2530120481927711	1285.0	9.180722891566266	2026.0	-0.12048192771084337	2057.0	-0.4290909090909091	472.0	-0.02090909090909091	-23.0	-0.22448979591836737	220.0	1.5228924777315625E12	1.522892477739E12	1410.15625	46208.0	0.0	0.0	
-0.916030534351145	-41.0	0.6259541984732824	60.0	1.4198473282442747	-93.0	0.30120481927710846	1285.0	9.180722891566266	2022.0	-0.13253012048192772	2058.0	-0.4309090909090909	474.0	-0.022727272727272728	-25.0	-0.22448979591836737	220.0	1.5228924777354688E12	1.52289247774E12	1414.0625	46336.0	0.0	0.0	
-0.7633587786259541	-40.0	0.6106870229007634	50.0	1.450381679389313	-95.0	0.3493975903614458	1286.0	9.168674698795181	2018.0	-0.12048192771084337	2057.0	-0.43363636363636365	477.0	-0.03272727272727273	-36.0	-0.22653061224489798	222.0	1.522892477739375E12	1.522892477777E12	1417.96875	46464.0	0.0	0.0	
-1.114503816793893	-43.0	0.6564885496183206	73.0	1.5419847328244274	-101.0	0.3855421686746988	1285.0	9.180722891566266	2015.0	-0.12048192771084337	2057.0	-0.43	473.0	-0.03	-33.0	-0.22755102040816327	223.0	1.5228924777432813E12	1.522892477778E12	1421.875	46592.0	0.0	0.0	
-1.1603053435114503	-32.0	0.48854961832061067	76.0	1.297709923664122	-85.0	0.3855421686746988	1286.0	9.168674698795181	2015.0	-0.12048192771084337	2057.0	-0.43	473.0	-0.03	-33.0	-0.22755102040816327	223.0	1.5228924777471875E12	1.522892477779E12	1425.78125	46720.0	0.0	0.0	
-0.8854961832061068	-46.0	0.7022900763358778	58.0	1.3435114503816794	-88.0	0.3855421686746988	1285.0	9.180722891566266	2015.0	-0.10843373493975904	2056.0	-0.4309090909090909	474.0	-0.017272727272727273	-19.0	-0.22448979591836737	220.0	1.5228924777510938E12	1.52289247778E12	1429.6875	46848.0	0.0	0.0	
-1.2519083969465647	-51.0	0.7786259541984732	82.0	1.4045801526717556	-92.0	0.3614457831325301	1283.0	9.204819277108435	2017.0	-0.0963855421686747	2055.0	-0.43636363636363634	480.0	-0.028181818181818183	-31.0	-0.22551020408163266	221.0	1.522892477755E12	1.522892477781E12	1433.59375	46976.0	0.0	0.0	
-1.129770992366412	-60.0	0.916030534351145	74.0	1.4045801526717556	-92.0	0.3493975903614458	1285.0	9.180722891566266	2018.0	-0.0963855421686747	2055.0	-0.43	473.0	-0.022727272727272728	-25.0	-0.22755102040816327	223.0	1.5228924777589063E12	1.522892477782E12	1437.5	47104.0	0.0	0.0	
-1.2366412213740459	-51.0	0.7786259541984732	81.0	1.4198473282442747	-93.0	0.3253012048192771	1284.0	9.19277108433735	2020.0	-0.07228915662650603	2053.0	-0.43272727272727274	476.0	-0.016363636363636365	-18.0	-0.22448979591836737	220.0	1.5228924777628125E12	1.522892477783E12	1441.40625	47232.0	0.0	0.0	
-1.114503816793893	-52.0	0.7938931297709924	73.0	1.4198473282442747	-93.0	0.3614457831325301	1284.0	9.19277108433735	2017.0	-0.07228915662650603	2053.0	-0.43454545454545457	478.0	-0.03090909090909091	-34.0	-0.22551020408163266	221.0	1.5228924777667188E12	1.522892477785E12	1445.3125	47360.0	0.0	0.0	
-1.0076335877862594	-53.0	0.8091603053435115	66.0	1.5114503816793892	-99.0	0.4096385542168675	1283.0	9.204819277108435	2013.0	-0.07228915662650603	2053.0	-0.43272727272727274	476.0	-0.02909090909090909	-32.0	-0.2295918367346939	225.0	1.522892477770625E12	1.522892477785E12	1449.21875	47488.0	0.0	0.0	
-1.099236641221374	-48.0	0.732824427480916	72.0	1.3740458015267174	-90.0	0.43373493975903615	1283.0	9.204819277108435	2011.0	-0.07228915662650603	2053.0	-0.43272727272727274	476.0	-0.02909090909090909	-32.0	-0.2295918367346939	225.0	1.5228924777745313E12	1.522892477787E12	1453.125	47616.0	0.0	0.0	
-1.099236641221374	-59.0	0.9007633587786259	72.0	1.282442748091603	-84.0	0.42168674698795183	1284.0	9.19277108433735	2012.0	-0.08433734939759037	2054.0	-0.4318181818181818	475.0	-0.016363636363636365	-18.0	-0.22346938775510206	219.0	1.5228924777784375E12	1.522892477788E12	1457.03125	47744.0	0.0	0.0	
-1.0534351145038168	-57.0	0.8702290076335878	69.0	1.1603053435114503	-76.0	0.39759036144578314	1284.0	9.19277108433735	2014.0	-0.07228915662650603	2053.0	-0.4354545454545454	479.0	-0.031818181818181815	-35.0	-0.22755102040816327	223.0	1.5228924777823438E12	1.522892477788E12	1460.9375	47872.0	0.0	0.0	
-1.282442748091603	-49.0	0.7480916030534351	84.0	1.2061068702290076	-79.0	0.3493975903614458	1284.0	9.19277108433735	2018.0	-0.03614457831325302	2050.0	-0.4309090909090909	474.0	-0.03	-33.0	-0.2285714285714286	224.0	1.52289247778625E12	1.522892477804E12	1464.84375	48000.0	0.0	0.0	
-1.0687022900763359	-51.0	0.7786259541984732	70.0	1.1908396946564885	-78.0	0.30120481927710846	1283.0	9.204819277108435	2022.0	-0.024096385542168676	2049.0	-0.42272727272727273	465.0	-0.017272727272727273	-19.0	-0.22653061224489798	222.0	1.5228924777901563E12	1.522892477805E12	1468.75	48128.0	0.0	0.0	
-1.1603053435114503	-59.0	0.9007633587786259	76.0	1.2213740458015268	-80.0	0.2530120481927711	1283.0	9.204819277108435	2026.0	-0.024096385542168676	2049.0	-0.4263636363636364	469.0	-0.01090909090909091	-12.0	-0.2285714285714286	224.0	1.5228924777940625E12	1.522892477806E12	1472.65625	48256.0	0.0	0.0	
-1.3129770992366412	-65.0	0.9923664122137404	86.0	1.3587786259541985	-89.0	0.20481927710843376	1284.0	9.19277108433735	2030.0	-0.024096385542168676	2049.0	-0.4263636363636364	469.0	-0.022727272727272728	-25.0	-0.2285714285714286	224.0	1.5228924777979688E12	1.522892477808E12	1476.5625	48384.0	0.0	0.0	
-1.114503816793893	-62.0	0.9465648854961831	73.0	1.1755725190839694	-77.0	0.20481927710843376	1283.0	9.204819277108435	2030.0	-0.024096385542168676	2049.0	-0.42818181818181816	471.0	-0.022727272727272728	-25.0	-0.22040816326530616	216.0	1.522892477801875E12	1.522892477809E12	1480.46875	48512.0	0.0	0.0	
-1.0229007633587786	-58.0	0.8854961832061068	67.0	1.3129770992366412	-86.0	0.16867469879518074	1283.0	9.204819277108435	2033.0	-0.012048192771084338	2048.0	-0.43636363636363634	480.0	-0.02090909090909091	-23.0	-0.22346938775510206	219.0	1.5228924778057813E12	1.52289247781E12	1484.375	48640.0	0.0	0.0	
-1.1603053435114503	-55.0	0.8396946564885496	76.0	1.2366412213740459	-81.0	0.14457831325301207	1283.0	9.204819277108435	2035.0	-0.012048192771084338	2048.0	-0.4354545454545454	479.0	-0.03	-33.0	-0.2285714285714286	224.0	1.5228924778096875E12	1.522892477811E12	1488.28125	48768.0	0.0	0.0	
-1.2366412213740459	-50.0	0.7633587786259541	81.0	1.5114503816793892	-99.0	0.1566265060240964	1286.0	9.168674698795181	2034.0	0.0	2047.0	-0.42727272727272725	470.0	-0.02727272727272727	-30.0	-0.22755102040816327	223.0	1.5228924778135938E12	1.522892477823E12	1492.1875	48896.0	0.0	0.0	
-1.2366412213740459	-50.0	0.7633587786259541	81.0	1.4045801526717556	-92.0	0.10843373493975904	1286.0	9.168674698795181	2038.0	0.0	2047.0	-0.42727272727272725	470.0	-0.0018181818181818182	-2.0	-0.22551020408163266	221.0	1.5228924778175E12	1.522892477824E12	1496.09375	49024.0	0.0	0.0	
-1.2519083969465647	-52.0	0.7938931297709924	82.0	1.2366412213740459	-81.0	0.13253012048192772	1287.0	9.156626506024097	2036.0	0.012048192771084338	2046.0	-0.4290909090909091	472.0	-0.014545454545454545	-16.0	-0.22040816326530616	216.0	1.5228924778214063E12	1.522892477825E12	1500.0	49152.0	0.0	0.0	
-1.2213740458015268	-37.0	0.564885496183206	80.0	1.4045801526717556	-92.0	0.16867469879518074	1286.0	9.168674698795181	2033.0	0.012048192771084338	2046.0	-0.4290909090909091	472.0	-0.014545454545454545	-16.0	-0.22040816326530616	216.0	1.5228924778253125E12	1.522892477837E12	1503.90625	49280.0	0.0	0.0	
-1.3129770992366412	-35.0	0.5343511450381679	86.0	1.3740458015267174	-90.0	0.1927710843373494	1287.0	9.156626506024097	2031.0	0.03614457831325302	2044.0	-0.4290909090909091	472.0	-0.02	-22.0	-0.23163265306122452	227.0	1.5228924778292188E12	1.522892477838E12	1507.8125	49408.0	0.0	0.0	
-1.5114503816793892	-47.0	0.7175572519083969	99.0	1.8015267175572518	-118.0	0.24096385542168675	1287.0	9.156626506024097	2027.0	0.024096385542168676	2045.0	-0.4354545454545454	479.0	-0.02	-22.0	-0.22448979591836737	220.0	1.522892477833125E12	1.52289247784E12	1511.71875	49536.0	0.0	0.0	
-1.129770992366412	-26.0	0.3969465648854962	74.0	1.648854961832061	-108.0	0.3373493975903615	1286.0	9.168674698795181	2019.0	0.024096385542168676	2045.0	-0.43363636363636365	477.0	-0.02181818181818182	-24.0	-0.22142857142857145	217.0	1.5228924778370313E12	1.522892477847E12	1515.625	49664.0	0.0	0.0	
-1.2519083969465647	-33.0	0.5038167938931297	82.0	1.4809160305343512	-97.0	0.42168674698795183	1283.0	9.204819277108435	2012.0	0.012048192771084338	2046.0	-0.42818181818181816	471.0	-0.02	-22.0	-0.22551020408163266	221.0	1.5228924778409375E12	1.522892477848E12	1519.53125	49792.0	0.0	0.0	
-1.2519083969465647	-42.0	0.6412213740458015	82.0	1.6793893129770991	-110.0	0.44578313253012053	1284.0	9.19277108433735	2010.0	-0.012048192771084338	2048.0	-0.4354545454545454	479.0	-0.019090909090909092	-21.0	-0.22653061224489798	222.0	1.5228924778448438E12	1.522892477849E12	1523.4375	49920.0	0.0	0.0	
-1.1755725190839694	-39.0	0.5954198473282443	77.0	1.450381679389313	-95.0	0.44578313253012053	1283.0	9.204819277108435	2010.0	-0.03614457831325302	2050.0	-0.4309090909090909	474.0	-0.022727272727272728	-25.0	-0.22346938775510206	219.0	1.52289247784875E12	1.522892477862E12	1527.34375	50048.0	0.0	0.0	
-1.5114503816793892	-34.0	0.5190839694656488	99.0	1.5572519083969465	-102.0	0.4096385542168675	1283.0	9.204819277108435	2013.0	-0.024096385542168676	2049.0	-0.4309090909090909	474.0	-0.022727272727272728	-25.0	-0.22346938775510206	219.0	1.5228924778526563E12	1.522892477863E12	1531.25	50176.0	0.0	0.0	
-1.2366412213740459	-53.0	0.8091603053435115	81.0	1.1908396946564885	-78.0	0.39759036144578314	1283.0	9.204819277108435	2014.0	-0.03614457831325302	2050.0	-0.4290909090909091	472.0	-0.02090909090909091	-23.0	-0.2306122448979592	226.0	1.5228924778565625E12	1.522892477864E12	1535.15625	50304.0	0.0	0.0	
-1.297709923664122	-45.0	0.6870229007633587	85.0	1.282442748091603	-84.0	0.3855421686746988	1282.0	9.216867469879519	2015.0	-0.03614457831325302	2050.0	-0.43454545454545457	478.0	-0.024545454545454544	-27.0	-0.22346938775510206	219.0	1.5228924778604688E12	1.522892477868E12	1539.0625	50432.0	0.0	0.0	
-0.9312977099236641	-42.0	0.6412213740458015	61.0	1.114503816793893	-73.0	0.4096385542168675	1283.0	9.204819277108435	2013.0	-0.03614457831325302	2050.0	-0.4354545454545454	479.0	-0.026363636363636363	-29.0	-0.22244897959183677	218.0	1.522892477864375E12	1.522892477869E12	1542.96875	50560.0	0.0	0.0	
-1.1450381679389312	-49.0	0.7480916030534351	75.0	1.3893129770992365	-91.0	0.3855421686746988	1284.0	9.19277108433735	2015.0	-0.024096385542168676	2049.0	-0.43	473.0	-0.019090909090909092	-21.0	-0.22448979591836737	220.0	1.5228924778682813E12	1.522892477871E12	1546.875	50688.0	0.0	0.0	
-1.3129770992366412	-59.0	0.9007633587786259	86.0	1.2366412213740459	-81.0	0.3614457831325301	1284.0	9.19277108433735	2017.0	-0.03614457831325302	2050.0	-0.43636363636363634	480.0	-0.026363636363636363	-29.0	-0.22142857142857145	217.0	1.5228924778721875E12	1.522892477883E12	1550.78125	50816.0	0.0	0.0	
-1.099236641221374	-64.0	0.9770992366412213	72.0	1.099236641221374	-72.0	0.3614457831325301	1283.0	9.204819277108435	2017.0	-0.03614457831325302	2050.0	-0.43272727272727274	476.0	-0.031818181818181815	-35.0	-0.2306122448979592	226.0	1.5228924778760938E12	1.522892477884E12	1554.6875	50944.0	0.0	0.0	
-1.3740458015267174	-68.0	1.0381679389312977	90.0	1.2671755725190839	-83.0	0.3373493975903615	1284.0	9.19277108433735	2019.0	-0.04819277108433735	2051.0	-0.43272727272727274	476.0	-0.031818181818181815	-35.0	-0.2306122448979592	226.0	1.52289247788E12	1.522892477885E12	1558.59375	51072.0	0.0	0.0	
-1.3587786259541985	-40.0	0.6106870229007634	89.0	1.1908396946564885	-78.0	0.3373493975903615	1285.0	9.180722891566266	2019.0	0.0	2047.0	-0.42272727272727273	465.0	-0.024545454545454544	-27.0	-0.22346938775510206	219.0	1.5228924778839063E12	1.522892477927E12	1562.5	51200.0	0.0	0.0	
-1.465648854961832	-58.0	0.8854961832061068	96.0	1.114503816793893	-73.0	0.27710843373493976	1284.0	9.19277108433735	2024.0	0.012048192771084338	2046.0	-0.42454545454545456	467.0	-0.025454545454545455	-28.0	-0.22448979591836737	220.0	1.5228924778878125E12	1.522892477928E12	1566.40625	51328.0	0.0	0.0	
-1.450381679389313	-48.0	0.732824427480916	95.0	0.9770992366412213	-64.0	0.2530120481927711	1285.0	9.180722891566266	2026.0	0.03614457831325302	2044.0	-0.43636363636363634	480.0	-0.03090909090909091	-34.0	-0.2295918367346939	225.0	1.5228924778917188E12	1.522892477929E12	1570.3125	51456.0	0.0	0.0	
-1.5114503816793892	-38.0	0.5801526717557252	99.0	1.0229007633587786	-67.0	0.22891566265060243	1286.0	9.168674698795181	2028.0	0.04819277108433735	2043.0	-0.43	473.0	-0.02090909090909091	-23.0	-0.2285714285714286	224.0	1.522892477895625E12	1.52289247793E12	1574.21875	51584.0	0.0	0.0	
-1.114503816793893	-42.0	0.6412213740458015	73.0	1.2061068702290076	-79.0	0.22891566265060243	1287.0	9.156626506024097	2028.0	0.060240963855421686	2042.0	-0.43272727272727274	476.0	-0.02909090909090909	-32.0	-0.22653061224489798	222.0	1.5228924778995313E12	1.522892477931E12	1578.125	51712.0	0.0	0.0	
-1.3893129770992365	-41.0	0.6259541984732824	91.0	1.3893129770992365	-91.0	0.28915662650602414	1286.0	9.168674698795181	2023.0	0.04819277108433735	2043.0	-0.43	473.0	-0.03090909090909091	-34.0	-0.2285714285714286	224.0	1.5228924779034375E12	1.522892477931E12	1582.03125	51840.0	0.0	0.0	
-1.3282442748091603	-39.0	0.5954198473282443	87.0	1.3129770992366412	-86.0	0.3373493975903615	1285.0	9.180722891566266	2019.0	0.08433734939759037	2040.0	-0.43	473.0	-0.03090909090909091	-34.0	-0.2285714285714286	224.0	1.5228924779073438E12	1.522892477932E12	1585.9375	51968.0	0.0	0.0	
-1.450381679389313	-61.0	0.9312977099236641	95.0	1.1603053435114503	-76.0	0.3373493975903615	1284.0	9.19277108433735	2019.0	0.0963855421686747	2039.0	-0.4309090909090909	474.0	-0.02	-22.0	-0.2295918367346939	225.0	1.52289247791125E12	1.522892477933E12	1589.84375	52096.0	0.0	0.0	
-1.3587786259541985	-47.0	0.7175572519083969	89.0	1.1908396946564885	-78.0	0.30120481927710846	1284.0	9.19277108433735	2022.0	0.0963855421686747	2039.0	-0.4318181818181818	475.0	-0.031818181818181815	-35.0	-0.22551020408163266	221.0	1.5228924779151563E12	1.522892477934E12	1593.75	52224.0	0.0	0.0	
-1.5419847328244274	-56.0	0.8549618320610687	101.0	1.1755725190839694	-77.0	0.24096385542168675	1283.0	9.204819277108435	2027.0	0.08433734939759037	2040.0	-0.4309090909090909	474.0	-0.025454545454545455	-28.0	-0.2306122448979592	226.0	1.5228924779190625E12	1.522892477935E12	1597.65625	52352.0	0.0	0.0	
-1.297709923664122	-66.0	1.0076335877862594	85.0	1.083969465648855	-71.0	0.1927710843373494	1284.0	9.19277108433735	2031.0	0.0963855421686747	2039.0	-0.4318181818181818	475.0	-0.02090909090909091	-23.0	-0.2306122448979592	226.0	1.5228924779229688E12	1.522892477937E12	1601.5625	52480.0	0.0	0.0	
-1.3129770992366412	-58.0	0.8854961832061068	86.0	1.2519083969465647	-82.0	0.20481927710843376	1285.0	9.180722891566266	2030.0	0.0963855421686747	2039.0	-0.43363636363636365	477.0	-0.03	-33.0	-0.22551020408163266	221.0	1.522892477926875E12	1.522892477938E12	1605.46875	52608.0	0.0	0.0	
-1.2213740458015268	-55.0	0.8396946564885496	80.0	1.0381679389312977	-68.0	0.1927710843373494	1287.0	9.156626506024097	2031.0	0.10843373493975904	2038.0	-0.4290909090909091	472.0	-0.02727272727272727	-30.0	-0.23367346938775513	229.0	1.5228924779307813E12	1.522892477944E12	1609.375	52736.0	0.0	0.0	
-1.1908396946564885	-41.0	0.6259541984732824	78.0	1.4351145038167938	-94.0	0.2530120481927711	1285.0	9.180722891566266	2026.0	0.12048192771084337	2037.0	-0.4290909090909091	472.0	-0.02727272727272727	-30.0	-0.23367346938775513	229.0	1.5228924779346875E12	1.522892477945E12	1613.28125	52864.0	0.0	0.0	
-1.2671755725190839	-32.0	0.48854961832061067	83.0	1.3129770992366412	-86.0	0.3132530120481928	1286.0	9.168674698795181	2021.0	0.10843373493975904	2038.0	-0.4318181818181818	475.0	-0.023636363636363636	-26.0	-0.22653061224489798	222.0	1.5228924779385938E12	1.522892477946E12	1617.1875	52992.0	0.0	0.0	
-1.114503816793893	-36.0	0.549618320610687	73.0	1.1450381679389312	-75.0	0.3493975903614458	1284.0	9.19277108433735	2018.0	0.13253012048192772	2036.0	-0.4254545454545455	468.0	-0.012727272727272728	-14.0	-0.2306122448979592	226.0	1.5228924779425E12	1.522892477952E12	1621.09375	53120.0	0.0	0.0	
-1.3129770992366412	-54.0	0.8244274809160305	86.0	1.282442748091603	-84.0	0.28915662650602414	1285.0	9.180722891566266	2023.0	0.12048192771084337	2037.0	-0.43272727272727274	476.0	-0.019090909090909092	-21.0	-0.21938775510204084	215.0	1.5228924779464063E12	1.522892477953E12	1625.0	53248.0	0.0	0.0	
-1.2519083969465647	-35.0	0.5343511450381679	82.0	1.2671755725190839	-83.0	0.24096385542168675	1284.0	9.19277108433735	2027.0	0.10843373493975904	2038.0	-0.43454545454545457	478.0	-0.024545454545454544	-27.0	-0.22755102040816327	223.0	1.5228924779503125E12	1.522892477954E12	1628.90625	53376.0	0.0	0.0	
-1.1755725190839694	-42.0	0.6412213740458015	77.0	1.297709923664122	-85.0	0.18072289156626506	1284.0	9.19277108433735	2032.0	0.10843373493975904	2038.0	-0.43454545454545457	478.0	-0.02909090909090909	-32.0	-0.22653061224489798	222.0	1.5228924779542188E12	1.522892477965E12	1632.8125	53504.0	0.0	0.0	
-1.2671755725190839	-39.0	0.5954198473282443	83.0	1.2671755725190839	-83.0	0.18072289156626506	1284.0	9.19277108433735	2032.0	0.0963855421686747	2039.0	-0.4309090909090909	474.0	-0.025454545454545455	-28.0	-0.23163265306122452	227.0	1.522892477958125E12	1.522892477967E12	1636.71875	53632.0	0.0	0.0	
-1.1450381679389312	-47.0	0.7175572519083969	75.0	1.3587786259541985	-89.0	0.1566265060240964	1284.0	9.19277108433735	2034.0	0.0963855421686747	2039.0	-0.4309090909090909	474.0	-0.025454545454545455	-28.0	-0.23163265306122452	227.0	1.5228924779620313E12	1.522892477968E12	1640.625	53760.0	0.0	0.0	
-1.2213740458015268	-44.0	0.6717557251908397	80.0	1.465648854961832	-96.0	0.1927710843373494	1286.0	9.168674698795181	2031.0	0.0963855421686747	2039.0	-0.4309090909090909	474.0	-0.016363636363636365	-18.0	-0.22653061224489798	222.0	1.5228924779659375E12	1.522892477978E12	1644.53125	53888.0	0.0	0.0	
-0.9465648854961831	-49.0	0.7480916030534351	62.0	1.5725190839694656	-103.0	0.26506024096385544	1286.0	9.168674698795181	2025.0	0.08433734939759037	2040.0	-0.43272727272727274	476.0	-0.012727272727272728	-14.0	-0.22755102040816327	223.0	1.5228924779698438E12	1.522892477979E12	1648.4375	54016.0	0.0	0.0	
-1.0229007633587786	-43.0	0.6564885496183206	67.0	1.3282442748091603	-87.0	0.3132530120481928	1285.0	9.180722891566266	2021.0	0.08433734939759037	2040.0	-0.42727272727272725	470.0	-0.02090909090909091	-23.0	-0.2295918367346939	225.0	1.52289247797375E12	1.522892477979E12	1652.34375	54144.0	0.0	0.0	
-1.0381679389312977	-40.0	0.6106870229007634	68.0	1.4198473282442747	-93.0	0.3373493975903615	1286.0	9.168674698795181	2019.0	0.08433734939759037	2040.0	-0.43272727272727274	476.0	-0.015454545454545455	-17.0	-0.22653061224489798	222.0	1.5228924779776563E12	1.522892477996E12	1656.25	54272.0	0.0	0.0	
-1.114503816793893	-30.0	0.4580152671755725	73.0	1.1450381679389312	-75.0	0.3132530120481928	1284.0	9.19277108433735	2021.0	0.060240963855421686	2042.0	-0.4309090909090909	474.0	-0.015454545454545455	-17.0	-0.21734693877551023	213.0	1.5228924779815625E12	1.522892477996E12	1660.15625	54400.0	0.0	0.0	
-1.129770992366412	-48.0	0.732824427480916	74.0	1.3129770992366412	-86.0	0.30120481927710846	1284.0	9.19277108433735	2022.0	0.060240963855421686	2042.0	-0.4309090909090909	474.0	-0.023636363636363636	-26.0	-0.21734693877551023	213.0	1.5228924779854688E12	1.522892477997E12	1664.0625	54528.0	0.0	0.0	
-1.2519083969465647	-48.0	0.732824427480916	82.0	1.1755725190839694	-77.0	0.30120481927710846	1284.0	9.19277108433735	2022.0	0.060240963855421686	2042.0	-0.4309090909090909	474.0	-0.023636363636363636	-26.0	-0.2285714285714286	224.0	1.522892477989375E12	1.522892478E12	1667.96875	54656.0	0.0	0.0	
-1.2061068702290076	-37.0	0.564885496183206	79.0	1.2366412213740459	-81.0	0.30120481927710846	1286.0	9.168674698795181	2022.0	0.07228915662650603	2041.0	-0.4254545454545455	468.0	-0.0027272727272727275	-3.0	-0.2285714285714286	224.0	1.5228924779932813E12	1.522892478001E12	1671.875	54784.0	0.0	0.0	
-1.1450381679389312	-41.0	0.6259541984732824	75.0	1.2061068702290076	-79.0	0.3132530120481928	1284.0	9.19277108433735	2021.0	0.060240963855421686	2042.0	-0.43636363636363634	480.0	-0.03	-33.0	-0.22755102040816327	223.0	1.5228924779971875E12	1.522892478003E12	1675.78125	54912.0	0.0	0.0	
-1.083969465648855	-46.0	0.7022900763358778	71.0	1.450381679389313	-95.0	0.3493975903614458	1284.0	9.19277108433735	2018.0	0.060240963855421686	2042.0	-0.43	473.0	-0.03090909090909091	-34.0	-0.22653061224489798	222.0	1.5228924780010938E12	1.522892478018E12	1679.6875	55040.0	0.0	0.0	
-1.0229007633587786	-49.0	0.7480916030534351	67.0	1.2366412213740459	-81.0	0.3493975903614458	1283.0	9.204819277108435	2018.0	0.04819277108433735	2043.0	-0.43727272727272726	481.0	-0.022727272727272728	-25.0	-0.22346938775510206	219.0	1.522892478005E12	1.522892478019E12	1683.59375	55168.0	0.0	0.0	
-1.2061068702290076	-43.0	0.6564885496183206	79.0	1.1755725190839694	-77.0	0.3253012048192771	1284.0	9.19277108433735	2020.0	0.04819277108433735	2043.0	-0.43454545454545457	478.0	-0.026363636363636363	-29.0	-0.23163265306122452	227.0	1.5228924780089063E12	1.522892478019E12	1687.5	55296.0	0.0	0.0	
-0.9770992366412213	-48.0	0.732824427480916	64.0	1.297709923664122	-85.0	0.3132530120481928	1284.0	9.19277108433735	2021.0	0.03614457831325302	2044.0	-0.43454545454545457	478.0	-0.026363636363636363	-29.0	-0.23163265306122452	227.0	1.5228924780128125E12	1.522892478021E12	1691.40625	55424.0	0.0	0.0	
-0.9465648854961831	-31.0	0.47328244274809156	62.0	1.1450381679389312	-75.0	0.26506024096385544	1286.0	9.168674698795181	2025.0	0.04819277108433735	2043.0	-0.43272727272727274	476.0	-0.023636363636363636	-26.0	-0.22244897959183677	218.0	1.5228924780167188E12	1.522892478022E12	1695.3125	55552.0	0.0	0.0	
-1.2061068702290076	-43.0	0.6564885496183206	79.0	1.2061068702290076	-79.0	0.24096385542168675	1285.0	9.180722891566266	2027.0	0.07228915662650603	2041.0	-0.43363636363636365	477.0	-0.02	-22.0	-0.22653061224489798	222.0	1.522892478020625E12	1.522892478023E12	1699.21875	55680.0	0.0	0.0	
-1.1908396946564885	-47.0	0.7175572519083969	78.0	1.3435114503816794	-88.0	0.21686746987951808	1285.0	9.180722891566266	2029.0	0.08433734939759037	2040.0	-0.4318181818181818	475.0	-0.024545454545454544	-27.0	-0.2326530612244898	228.0	1.5228924780245313E12	1.522892478035E12	1703.125	55808.0	0.0	0.0	
-1.0076335877862594	-58.0	0.8854961832061068	66.0	1.297709923664122	-85.0	0.18072289156626506	1284.0	9.19277108433735	2032.0	0.10843373493975904	2038.0	-0.4318181818181818	475.0	-0.014545454545454545	-16.0	-0.2306122448979592	226.0	1.5228924780284375E12	1.522892478037E12	1707.03125	55936.0	0.0	0.0	
-1.129770992366412	-63.0	0.9618320610687022	74.0	1.114503816793893	-73.0	0.16867469879518074	1284.0	9.19277108433735	2033.0	0.10843373493975904	2038.0	-0.4254545454545455	468.0	-0.024545454545454544	-27.0	-0.22653061224489798	222.0	1.5228924780323438E12	1.522892478038E12	1710.9375	56064.0	0.0	0.0	
-1.1755725190839694	-43.0	0.6564885496183206	77.0	1.4198473282442747	-93.0	0.14457831325301207	1284.0	9.19277108433735	2035.0	0.10843373493975904	2038.0	-0.4318181818181818	475.0	-0.03	-33.0	-0.2326530612244898	228.0	1.52289247803625E12	1.522892478078E12	1714.84375	56192.0	0.0	0.0	
-1.099236641221374	-49.0	0.7480916030534351	72.0	1.2213740458015268	-80.0	0.13253012048192772	1285.0	9.180722891566266	2036.0	0.0963855421686747	2039.0	-0.4318181818181818	475.0	-0.03	-33.0	-0.2326530612244898	228.0	1.5228924780401563E12	1.522892478079E12	1718.75	56320.0	0.0	0.0	
-1.2061068702290076	-44.0	0.6717557251908397	79.0	1.3740458015267174	-90.0	0.12048192771084337	1285.0	9.180722891566266	2037.0	0.08433734939759037	2040.0	-0.4263636363636364	469.0	-0.02	-22.0	-0.22755102040816327	223.0	1.5228924780440625E12	1.52289247808E12	1722.65625	56448.0	0.0	0.0	
-0.9007633587786259	-32.0	0.48854961832061067	59.0	1.3893129770992365	-91.0	0.1566265060240964	1286.0	9.168674698795181	2034.0	0.0963855421686747	2039.0	-0.43363636363636365	477.0	-0.02	-22.0	-0.22755102040816327	223.0	1.5228924780479688E12	1.522892478081E12	1726.5625	56576.0	0.0	0.0	
-1.0687022900763359	-36.0	0.549618320610687	70.0	1.3587786259541985	-89.0	0.1927710843373494	1285.0	9.180722891566266	2031.0	0.13253012048192772	2036.0	-0.43	473.0	-0.013636363636363636	-15.0	-0.22448979591836737	220.0	1.522892478051875E12	1.522892478082E12	1730.46875	56704.0	0.0	0.0	
-1.083969465648855	-38.0	0.5801526717557252	71.0	1.4351145038167938	-94.0	0.1927710843373494	1285.0	9.180722891566266	2031.0	0.18072289156626506	2032.0	-0.4290909090909091	472.0	-0.01818181818181818	-20.0	-0.22755102040816327	223.0	1.5228924780557813E12	1.522892478083E12	1734.375	56832.0	0.0	0.0	
-1.114503816793893	-25.0	0.38167938931297707	73.0	1.4198473282442747	-93.0	0.20481927710843376	1284.0	9.19277108433735	2030.0	0.1927710843373494	2031.0	-0.43636363636363634	480.0	-0.022727272727272728	-25.0	-0.22244897959183677	218.0	1.5228924780596875E12	1.522892478085E12	1738.28125	56960.0	0.0	0.0	
-0.9007633587786259	-29.0	0.4427480916030534	59.0	1.4961832061068703	-98.0	0.21686746987951808	1284.0	9.19277108433735	2029.0	0.1566265060240964	2034.0	-0.43454545454545457	478.0	-0.02909090909090909	-32.0	-0.2306122448979592	226.0	1.5228924780635938E12	1.522892478085E12	1742.1875	57088.0	0.0	0.0	
-1.0534351145038168	-31.0	0.47328244274809156	69.0	1.7557251908396947	-115.0	0.2530120481927711	1285.0	9.180722891566266	2026.0	0.18072289156626506	2032.0	-0.43454545454545457	478.0	-0.02909090909090909	-32.0	-0.2306122448979592	226.0	1.5228924780675E12	1.522892478087E12	1746.09375	57216.0	0.0	0.0	
-1.0381679389312977	-40.0	0.6106870229007634	68.0	1.5419847328244274	-101.0	0.26506024096385544	1284.0	9.19277108433735	2025.0	0.16867469879518074	2033.0	-0.4290909090909091	472.0	-0.019090909090909092	-21.0	-0.2306122448979592	226.0	1.5228924780714063E12	1.522892478087E12	1750.0	57344.0	0.0	0.0	
-0.8854961832061068	-39.0	0.5954198473282443	58.0	1.4809160305343512	-97.0	0.2530120481927711	1283.0	9.204819277108435	2026.0	0.16867469879518074	2033.0	-0.43363636363636365	477.0	-0.025454545454545455	-28.0	-0.22448979591836737	220.0	1.5228924780753125E12	1.522892478088E12	1753.90625	57472.0	0.0	0.0	
-0.7938931297709924	-39.0	0.5954198473282443	52.0	1.4961832061068703	-98.0	0.22891566265060243	1283.0	9.204819277108435	2028.0	0.14457831325301207	2035.0	-0.4354545454545454	479.0	-0.03	-33.0	-0.23163265306122452	227.0	1.5228924780792188E12	1.52289247809E12	1757.8125	57600.0	0.0	0.0	
-0.8396946564885496	-48.0	0.732824427480916	55.0	1.4351145038167938	-94.0	0.22891566265060243	1285.0	9.180722891566266	2028.0	0.14457831325301207	2035.0	-0.4290909090909091	472.0	-0.022727272727272728	-25.0	-0.2306122448979592	226.0	1.522892478083125E12	1.522892478104E12	1761.71875	57728.0	0.0	0.0	
-0.6564885496183206	-31.0	0.47328244274809156	43.0	1.7251908396946565	-113.0	0.21686746987951808	1284.0	9.19277108433735	2029.0	0.13253012048192772	2036.0	-0.43363636363636365	477.0	-0.03363636363636364	-37.0	-0.22755102040816327	223.0	1.5228924780870313E12	1.522892478116E12	1765.625	57856.0	0.0	0.0	
-0.5801526717557252	-37.0	0.564885496183206	38.0	1.4198473282442747	-93.0	0.22891566265060243	1283.0	9.204819277108435	2028.0	0.1566265060240964	2034.0	-0.4290909090909091	472.0	-0.012727272727272728	-14.0	-0.22142857142857145	217.0	1.5228924780909375E12	1.522892478117E12	1769.53125	57984.0	0.0	0.0	
-0.732824427480916	-33.0	0.5038167938931297	48.0	1.5725190839694656	-103.0	0.18072289156626506	1285.0	9.180722891566266	2032.0	0.12048192771084337	2037.0	-0.4290909090909091	472.0	-0.012727272727272728	-14.0	-0.22142857142857145	217.0	1.5228924780948438E12	1.522892478118E12	1773.4375	58112.0	0.0	0.0	
-0.48854961832061067	-27.0	0.41221374045801523	32.0	1.3435114503816794	-88.0	0.20481927710843376	1284.0	9.19277108433735	2030.0	0.10843373493975904	2038.0	-0.42	462.0	-0.013636363636363636	-15.0	-0.22448979591836737	220.0	1.52289247809875E12	1.522892478122E12	1777.34375	58240.0	0.0	0.0	
-0.5954198473282443	-36.0	0.549618320610687	39.0	1.7251908396946565	-113.0	0.21686746987951808	1284.0	9.19277108433735	2029.0	0.0963855421686747	2039.0	-0.42727272727272725	470.0	-0.011818181818181818	-13.0	-0.23163265306122452	227.0	1.5228924781026563E12	1.522892478123E12	1781.25	58368.0	0.0	0.0	
-0.549618320610687	-35.0	0.5343511450381679	36.0	1.4961832061068703	-98.0	0.21686746987951808	1286.0	9.168674698795181	2029.0	0.08433734939759037	2040.0	-0.42818181818181816	471.0	-0.02909090909090909	-32.0	-0.22551020408163266	221.0	1.5228924781065625E12	1.522892478124E12	1785.15625	58496.0	0.0	0.0	
-0.5954198473282443	-36.0	0.549618320610687	39.0	1.4198473282442747	-93.0	0.18072289156626506	1284.0	9.19277108433735	2032.0	0.07228915662650603	2041.0	-0.4290909090909091	472.0	-0.015454545454545455	-17.0	-0.22653061224489798	222.0	1.5228924781104688E12	1.522892478126E12	1789.0625	58624.0	0.0	0.0	
-0.7175572519083969	-32.0	0.48854961832061067	47.0	1.6335877862595418	-107.0	0.1566265060240964	1283.0	9.204819277108435	2034.0	0.07228915662650603	2041.0	-0.4318181818181818	475.0	-0.03	-33.0	-0.22653061224489798	222.0	1.522892478114375E12	1.522892478127E12	1792.96875	58752.0	0.0	0.0	
-0.6717557251908397	-24.0	0.366412213740458	44.0	1.66412213740458	-109.0	0.16867469879518074	1285.0	9.180722891566266	2033.0	0.07228915662650603	2041.0	-0.4290909090909091	472.0	-0.00909090909090909	-10.0	-0.22448979591836737	220.0	1.5228924781182813E12	1.522892478128E12	1796.875	58880.0	0.0	0.0	
-0.732824427480916	-19.0	0.2900763358778626	48.0	1.5572519083969465	-102.0	0.1566265060240964	1286.0	9.168674698795181	2034.0	0.060240963855421686	2042.0	-0.4290909090909091	472.0	-0.00909090909090909	-10.0	-0.22448979591836737	220.0	1.5228924781221875E12	1.522892478134E12	1800.78125	59008.0	0.0	0.0	
-0.7175572519083969	-17.0	0.2595419847328244	47.0	1.5877862595419847	-104.0	0.20481927710843376	1287.0	9.156626506024097	2030.0	0.060240963855421686	2042.0	-0.4318181818181818	475.0	-0.012727272727272728	-14.0	-0.22653061224489798	222.0	1.5228924781260938E12	1.522892478135E12	1804.6875	59136.0	0.0	0.0	
-0.7175572519083969	-28.0	0.42748091603053434	47.0	1.648854961832061	-108.0	0.21686746987951808	1286.0	9.168674698795181	2029.0	0.04819277108433735	2043.0	-0.43272727272727274	476.0	-0.011818181818181818	-13.0	-0.21734693877551023	213.0	1.52289247813E12	1.522892478136E12	1808.59375	59264.0	0.0	0.0	
-0.5343511450381679	-27.0	0.41221374045801523	35.0	1.648854961832061	-108.0	0.28915662650602414	1285.0	9.180722891566266	2023.0	0.03614457831325302	2044.0	-0.42727272727272725	470.0	-0.016363636363636365	-18.0	-0.22142857142857145	217.0	1.5228924781339063E12	1.522892478144E12	1812.5	59392.0	0.0	0.0	
-0.6870229007633587	-22.0	0.33587786259541985	45.0	1.8778625954198473	-123.0	0.3253012048192771	1285.0	9.180722891566266	2020.0	0.024096385542168676	2045.0	-0.43272727272727274	476.0	-0.013636363636363636	-15.0	-0.22551020408163266	221.0	1.5228924781378125E12	1.522892478145E12	1816.40625	59520.0	0.0	0.0	
-0.732824427480916	-18.0	0.2748091603053435	48.0	1.7251908396946565	-113.0	0.3855421686746988	1285.0	9.180722891566266	2015.0	0.024096385542168676	2045.0	-0.43636363636363634	480.0	-0.028181818181818183	-31.0	-0.22653061224489798	222.0	1.5228924781417188E12	1.522892478147E12	1820.3125	59648.0	0.0	0.0	
-0.6106870229007634	-27.0	0.41221374045801523	40.0	1.6793893129770991	-110.0	0.3734939759036145	1285.0	9.180722891566266	2016.0	0.012048192771084338	2046.0	-0.4263636363636364	469.0	-0.023636363636363636	-26.0	-0.2285714285714286	224.0	1.522892478145625E12	1.522892478156E12	1824.21875	59776.0	0.0	0.0	
-0.8549618320610687	-37.0	0.564885496183206	56.0	1.5114503816793892	-99.0	0.39759036144578314	1284.0	9.19277108433735	2014.0	0.024096385542168676	2045.0	-0.4263636363636364	469.0	-0.023636363636363636	-26.0	-0.2285714285714286	224.0	1.5228924781495313E12	1.522892478157E12	1828.125	59904.0	0.0	0.0	
-0.6106870229007634	-46.0	0.7022900763358778	40.0	1.618320610687023	-106.0	0.43373493975903615	1283.0	9.204819277108435	2011.0	-0.024096385542168676	2049.0	-0.4318181818181818	475.0	-0.019090909090909092	-21.0	-0.22448979591836737	220.0	1.5228924781534375E12	1.522892478158E12	1832.03125	60032.0	0.0	0.0	
-0.6564885496183206	-31.0	0.47328244274809156	43.0	1.4351145038167938	-94.0	0.43373493975903615	1284.0	9.19277108433735	2011.0	0.0	2047.0	-0.43454545454545457	478.0	-0.03	-33.0	-0.22755102040816327	223.0	1.5228924781573438E12	1.522892478168E12	1835.9375	60160.0	0.0	0.0	
-0.6412213740458015	-28.0	0.42748091603053434	42.0	1.450381679389313	-95.0	0.4096385542168675	1282.0	9.216867469879519	2013.0	-0.03614457831325302	2050.0	-0.42727272727272725	470.0	-0.025454545454545455	-28.0	-0.2295918367346939	225.0	1.52289247816125E12	1.522892478169E12	1839.84375	60288.0	0.0	0.0	
-0.8244274809160305	-45.0	0.6870229007633587	54.0	1.4809160305343512	-97.0	0.39759036144578314	1283.0	9.204819277108435	2014.0	-0.04819277108433735	2051.0	-0.43454545454545457	478.0	-0.02090909090909091	-23.0	-0.22346938775510206	219.0	1.5228924781651563E12	1.52289247817E12	1843.75	60416.0	0.0	0.0	
-0.8244274809160305	-45.0	0.6870229007633587	54.0	1.3282442748091603	-87.0	0.39759036144578314	1284.0	9.19277108433735	2014.0	-0.07228915662650603	2053.0	-0.4254545454545455	468.0	-0.011818181818181818	-13.0	-0.22244897959183677	218.0	1.5228924781690625E12	1.522892478181E12	1847.65625	60544.0	0.0	0.0	
-0.8549618320610687	-57.0	0.8702290076335878	56.0	1.4045801526717556	-92.0	0.3855421686746988	1284.0	9.19277108433735	2015.0	-0.07228915662650603	2053.0	-0.4254545454545455	468.0	-0.03090909090909091	-34.0	-0.22244897959183677	218.0	1.5228924781729688E12	1.522892478181E12	1851.5625	60672.0	0.0	0.0	
-0.5801526717557252	-50.0	0.7633587786259541	38.0	1.4198473282442747	-93.0	0.3855421686746988	1283.0	9.204819277108435	2015.0	-0.04819277108433735	2051.0	-0.43	473.0	-0.03090909090909091	-34.0	-0.23163265306122452	227.0	1.522892478176875E12	1.522892478182E12	1855.46875	60800.0	0.0	0.0	
-0.7175572519083969	-55.0	0.8396946564885496	47.0	1.3740458015267174	-90.0	0.3614457831325301	1285.0	9.180722891566266	2017.0	-0.060240963855421686	2052.0	-0.4354545454545454	479.0	-0.022727272727272728	-25.0	-0.22448979591836737	220.0	1.5228924781807813E12	1.52289247819E12	1859.375	60928.0	0.0	0.0	
-0.6870229007633587	-53.0	0.8091603053435115	45.0	1.2366412213740459	-81.0	0.3132530120481928	1283.0	9.204819277108435	2021.0	-0.04819277108433735	2051.0	-0.43636363636363634	480.0	-0.023636363636363636	-26.0	-0.2295918367346939	225.0	1.5228924781846875E12	1.522892478191E12	1863.28125	61056.0	0.0	0.0	
-0.732824427480916	-64.0	0.9770992366412213	48.0	1.1450381679389312	-75.0	0.30120481927710846	1284.0	9.19277108433735	2022.0	-0.04819277108433735	2051.0	-0.4309090909090909	474.0	-0.022727272727272728	-25.0	-0.2295918367346939	225.0	1.5228924781885938E12	1.522892478192E12	1867.1875	61184.0	0.0	0.0	
-0.8244274809160305	-48.0	0.732824427480916	54.0	1.1603053435114503	-76.0	0.21686746987951808	1285.0	9.180722891566266	2029.0	-0.03614457831325302	2050.0	-0.4318181818181818	475.0	-0.02090909090909091	-23.0	-0.22346938775510206	219.0	1.5228924781925E12	1.522892478228E12	1871.09375	61312.0	0.0	0.0	
-0.7480916030534351	-48.0	0.732824427480916	49.0	1.2366412213740459	-81.0	0.22891566265060243	1285.0	9.180722891566266	2028.0	-0.012048192771084338	2048.0	-0.43272727272727274	476.0	-0.024545454545454544	-27.0	-0.2326530612244898	228.0	1.5228924781964063E12	1.522892478229E12	1875.0	61440.0	0.0	0.0	
-0.9007633587786259	-57.0	0.8702290076335878	59.0	1.4045801526717556	-92.0	0.22891566265060243	1284.0	9.19277108433735	2028.0	-0.04819277108433735	2051.0	-0.43272727272727274	476.0	-0.024545454545454544	-27.0	-0.2326530612244898	228.0	1.5228924782003125E12	1.52289247823E12	1878.90625	61568.0	0.0	0.0	
-0.7480916030534351	-67.0	1.0229007633587786	49.0	1.282442748091603	-84.0	0.22891566265060243	1284.0	9.19277108433735	2028.0	0.012048192771084338	2046.0	-0.4254545454545455	468.0	-0.02090909090909091	-23.0	-0.2295918367346939	225.0	1.5228924782042188E12	1.522892478231E12	1882.8125	61696.0	0.0	0.0	
-0.9007633587786259	-58.0	0.8854961832061068	59.0	1.2671755725190839	-83.0	0.10843373493975904	1286.0	9.168674698795181	2038.0	0.024096385542168676	2045.0	-0.4354545454545454	479.0	-0.02090909090909091	-23.0	-0.22448979591836737	220.0	1.522892478208125E12	1.522892478232E12	1886.71875	61824.0	0.0	0.0	
-0.9007633587786259	-50.0	0.7633587786259541	59.0	1.5877862595419847	-104.0	0.07228915662650603	1285.0	9.180722891566266	2041.0	0.04819277108433735	2043.0	-0.42727272727272725	470.0	-0.031818181818181815	-35.0	-0.2306122448979592	226.0	1.5228924782120313E12	1.522892478233E12	1890.625	61952.0	0.0	0.0	
-1.0076335877862594	-45.0	0.6870229007633587	66.0	1.3740458015267174	-90.0	0.07228915662650603	1286.0	9.168674698795181	2041.0	0.08433734939759037	2040.0	-0.4254545454545455	468.0	-0.014545454545454545	-16.0	-0.22346938775510206	219.0	1.5228924782159375E12	1.522892478235E12	1894.53125	62080.0	0.0	0.0	
-0.9618320610687022	-38.0	0.5801526717557252	63.0	1.5419847328244274	-101.0	0.060240963855421686	1287.0	9.156626506024097	2042.0	0.08433734939759037	2040.0	-0.4318181818181818	475.0	-0.02181818181818182	-24.0	-0.22653061224489798	222.0	1.5228924782198438E12	1.522892478236E12	1898.4375	62208.0	0.0	0.0	
-0.7633587786259541	-36.0	0.549618320610687	50.0	1.5419847328244274	-101.0	0.07228915662650603	1286.0	9.168674698795181	2041.0	0.08433734939759037	2040.0	-0.43	473.0	-0.02727272727272727	-30.0	-0.2306122448979592	226.0	1.52289247822375E12	1.522892478237E12	1902.34375	62336.0	0.0	0.0	
-0.8854961832061068	-31.0	0.47328244274809156	58.0	1.7709923664122136	-116.0	0.12048192771084337	1285.0	9.180722891566266	2037.0	0.0963855421686747	2039.0	-0.43	473.0	-0.02727272727272727	-30.0	-0.2306122448979592	226.0	1.5228924782276563E12	1.522892478245E12	1906.25	62464.0	0.0	0.0	
-0.8702290076335878	-37.0	0.564885496183206	57.0	1.6793893129770991	-110.0	0.1566265060240964	1284.0	9.19277108433735	2034.0	0.07228915662650603	2041.0	-0.42818181818181816	471.0	-0.00909090909090909	-10.0	-0.22653061224489798	222.0	1.5228924782315625E12	1.522892478246E12	1910.15625	62592.0	0.0	0.0	
-0.8549618320610687	-32.0	0.48854961832061067	56.0	1.83206106870229	-120.0	0.14457831325301207	1284.0	9.19277108433735	2035.0	0.07228915662650603	2041.0	-0.43	473.0	-0.025454545454545455	-28.0	-0.22448979591836737	220.0	1.5228924782354688E12	1.522892478247E12	1914.0625	62720.0	0.0	0.0	
-0.9770992366412213	-42.0	0.6412213740458015	64.0	1.5725190839694656	-103.0	0.13253012048192772	1284.0	9.19277108433735	2036.0	0.07228915662650603	2041.0	-0.42272727272727273	465.0	-0.013636363636363636	-15.0	-0.2295918367346939	225.0	1.522892478239375E12	1.522892478251E12	1917.96875	62848.0	0.0	0.0	
-1.0229007633587786	-26.0	0.3969465648854962	67.0	1.7404580152671756	-114.0	0.13253012048192772	1286.0	9.168674698795181	2036.0	0.07228915662650603	2041.0	-0.43363636363636365	477.0	-0.02	-22.0	-0.22653061224489798	222.0	1.5228924782432813E12	1.522892478252E12	1921.875	62976.0	0.0	0.0	
-0.9770992366412213	-38.0	0.5801526717557252	64.0	1.816793893129771	-119.0	0.16867469879518074	1285.0	9.180722891566266	2033.0	0.04819277108433735	2043.0	-0.4318181818181818	475.0	-0.025454545454545455	-28.0	-0.22244897959183677	218.0	1.5228924782471875E12	1.522892478253E12	1925.78125	63104.0	0.0	0.0	
-0.9770992366412213	-24.0	0.366412213740458	64.0	1.9083969465648853	-125.0	0.22891566265060243	1285.0	9.180722891566266	2028.0	0.060240963855421686	2042.0	-0.4318181818181818	475.0	-0.03	-33.0	-0.2285714285714286	224.0	1.5228924782510938E12	1.522892478261E12	1929.6875	63232.0	0.0	0.0	
-0.8091603053435115	-26.0	0.3969465648854962	53.0	2.1526717557251906	-141.0	0.27710843373493976	1283.0	9.204819277108435	2024.0	0.08433734939759037	2040.0	-0.4318181818181818	475.0	-0.03	-33.0	-0.2285714285714286	224.0	1.522892478255E12	1.522892478262E12	1933.59375	63360.0	0.0	0.0	
-0.9465648854961831	-26.0	0.3969465648854962	62.0	1.8625954198473282	-122.0	0.3493975903614458	1285.0	9.180722891566266	2018.0	0.07228915662650603	2041.0	-0.4309090909090909	474.0	-0.015454545454545455	-17.0	-0.2285714285714286	224.0	1.5228924782589063E12	1.522892478263E12	1937.5	63488.0	0.0	0.0	
-0.9465648854961831	-26.0	0.3969465648854962	62.0	1.7862595419847327	-117.0	0.3734939759036145	1285.0	9.180722891566266	2016.0	0.04819277108433735	2043.0	-0.43272727272727274	476.0	-0.03	-33.0	-0.22346938775510206	219.0	1.5228924782628125E12	1.522892478279E12	1941.40625	63616.0	0.0	0.0	
-0.8854961832061068	-31.0	0.47328244274809156	58.0	1.8473282442748091	-121.0	0.3614457831325301	1285.0	9.180722891566266	2017.0	0.060240963855421686	2042.0	-0.4309090909090909	474.0	-0.011818181818181818	-13.0	-0.22244897959183677	218.0	1.5228924782667188E12	1.52289247828E12	1945.3125	63744.0	0.0	0.0	
-0.7938931297709924	-29.0	0.4427480916030534	52.0	1.7099236641221374	-112.0	0.3493975903614458	1285.0	9.180722891566266	2018.0	0.03614457831325302	2044.0	-0.43	473.0	-0.016363636363636365	-18.0	-0.22755102040816327	223.0	1.522892478270625E12	1.522892478281E12	1949.21875	63872.0	0.0	0.0	
-0.8549618320610687	-33.0	0.5038167938931297	56.0	1.816793893129771	-119.0	0.3253012048192771	1283.0	9.204819277108435	2020.0	0.03614457831325302	2044.0	-0.4309090909090909	474.0	-0.012727272727272728	-14.0	-0.22040816326530616	216.0	1.5228924782745313E12	1.522892478283E12	1953.125	64000.0	0.0	0.0	
-0.7938931297709924	-43.0	0.6564885496183206	52.0	1.648854961832061	-108.0	0.30120481927710846	1284.0	9.19277108433735	2022.0	0.0	2047.0	-0.42727272727272725	470.0	-0.016363636363636365	-18.0	-0.22142857142857145	217.0	1.5228924782784375E12	1.522892478284E12	1957.03125	64128.0	0.0	0.0	
-0.7938931297709924	-39.0	0.5954198473282443	52.0	1.83206106870229	-120.0	0.3132530120481928	1284.0	9.19277108433735	2021.0	0.024096385542168676	2045.0	-0.42727272727272725	470.0	-0.016363636363636365	-18.0	-0.22142857142857145	217.0	1.5228924782823438E12	1.522892478285E12	1960.9375	64256.0	0.0	0.0	
-0.8244274809160305	-32.0	0.48854961832061067	54.0	1.7709923664122136	-116.0	0.3373493975903615	1286.0	9.168674698795181	2019.0	0.012048192771084338	2046.0	-0.4290909090909091	472.0	-0.022727272727272728	-25.0	-0.2285714285714286	224.0	1.52289247828625E12	1.522892478298E12	1964.84375	64384.0	0.0	0.0	
-0.6717557251908397	-24.0	0.366412213740458	44.0	1.8015267175572518	-118.0	0.3855421686746988	1285.0	9.180722891566266	2015.0	0.012048192771084338	2046.0	-0.43636363636363634	480.0	-0.03090909090909091	-34.0	-0.22551020408163266	221.0	1.5228924782901563E12	1.522892478298E12	1968.75	64512.0	0.0	0.0	
-0.7786259541984732	-13.0	0.1984732824427481	51.0	1.8931297709923662	-124.0	0.45783132530120485	1284.0	9.19277108433735	2009.0	-0.012048192771084338	2048.0	-0.43272727272727274	476.0	-0.02	-22.0	-0.22448979591836737	220.0	1.5228924782940625E12	1.522892478299E12	1972.65625	64640.0	0.0	0.0	
-0.7022900763358778	-33.0	0.5038167938931297	46.0	1.816793893129771	-119.0	0.43373493975903615	1286.0	9.168674698795181	2011.0	-0.012048192771084338	2048.0	-0.43454545454545457	478.0	-0.022727272727272728	-25.0	-0.22653061224489798	222.0	1.5228924782979688E12	1.52289247831E12	1976.5625	64768.0	0.0	0.0	
-0.916030534351145	-41.0	0.6259541984732824	60.0	1.6335877862595418	-107.0	0.4096385542168675	1286.0	9.168674698795181	2013.0	-0.024096385542168676	2049.0	-0.43454545454545457	478.0	-0.03090909090909091	-34.0	-0.22755102040816327	223.0	1.522892478301875E12	1.522892478311E12	1980.46875	64896.0	0.0	0.0	
-0.9770992366412213	-38.0	0.5801526717557252	64.0	1.5572519083969465	-102.0	0.43373493975903615	1284.0	9.19277108433735	2011.0	-0.024096385542168676	2049.0	-0.42818181818181816	471.0	-0.02090909090909091	-23.0	-0.22755102040816327	223.0	1.5228924783057813E12	1.522892478312E12	1984.375	65024.0	0.0	0.0	
-1.0381679389312977	-37.0	0.564885496183206	68.0	1.6030534351145038	-105.0	0.43373493975903615	1285.0	9.180722891566266	2011.0	-0.024096385542168676	2049.0	-0.42818181818181816	471.0	-0.02090909090909091	-23.0	-0.22755102040816327	223.0	1.5228924783096875E12	1.522892478313E12	1988.28125	65152.0	0.0	0.0	
-0.8396946564885496	-34.0	0.5190839694656488	55.0	1.66412213740458	-109.0	0.4096385542168675	1284.0	9.19277108433735	2013.0	-0.024096385542168676	2049.0	-0.42272727272727273	465.0	-0.02	-22.0	-0.22755102040816327	223.0	1.5228924783135938E12	1.522892478323E12	1992.1875	65280.0	0.0	0.0	
-0.9465648854961831	-39.0	0.5954198473282443	62.0	1.5419847328244274	-101.0	0.42168674698795183	1283.0	9.204819277108435	2012.0	-0.024096385542168676	2049.0	-0.43636363636363634	480.0	-0.03090909090909091	-34.0	-0.22755102040816327	223.0	1.5228924783175E12	1.522892478324E12	1996.09375	65408.0	0.0	0.0	
-0.9465648854961831	-45.0	0.6870229007633587	62.0	1.5572519083969465	-102.0	0.42168674698795183	1284.0	9.19277108433735	2012.0	-0.024096385542168676	2049.0	-0.4290909090909091	472.0	-0.02090909090909091	-23.0	-0.22653061224489798	222.0	1.5228924783214063E12	1.522892478325E12	2000.0	0.0	0.0	0.0	
-1.0381679389312977	-50.0	0.7633587786259541	68.0	1.3282442748091603	-87.0	0.42168674698795183	1286.0	9.168674698795181	2012.0	-0.012048192771084338	2048.0	-0.43272727272727274	476.0	-0.023636363636363636	-26.0	-0.22755102040816327	223.0	1.5228924783253125E12	1.522892478336E12	2003.90625	128.0	0.0	0.0	
-1.083969465648855	-48.0	0.732824427480916	71.0	1.4809160305343512	-97.0	0.44578313253012053	1284.0	9.19277108433735	2010.0	-0.012048192771084338	2048.0	-0.43272727272727274	476.0	-0.03	-33.0	-0.22653061224489798	222.0	1.5228924783292188E12	1.522892478337E12	2007.8125	256.0	0.0	0.0	
-0.9465648854961831	-42.0	0.6412213740458015	62.0	1.297709923664122	-85.0	0.43373493975903615	1283.0	9.204819277108435	2011.0	0.0	2047.0	-0.4263636363636364	469.0	-0.02181818181818182	-24.0	-0.2285714285714286	224.0	1.522892478333125E12	1.522892478338E12	2011.71875	384.0	0.0	0.0	
-1.0381679389312977	-42.0	0.6412213740458015	68.0	1.1755725190839694	-77.0	0.4096385542168675	1284.0	9.19277108433735	2013.0	0.012048192771084338	2046.0	-0.4263636363636364	469.0	-0.02181818181818182	-24.0	-0.2285714285714286	224.0	1.5228924783370313E12	1.52289247838E12	2015.625	512.0	0.0	0.0	
-0.9007633587786259	-44.0	0.6717557251908397	59.0	1.2366412213740459	-81.0	0.3855421686746988	1284.0	9.19277108433735	2015.0	0.012048192771084338	2046.0	-0.43272727272727274	476.0	-0.014545454545454545	-16.0	-0.22551020408163266	221.0	1.5228924783409375E12	1.522892478381E12	2019.53125	640.0	0.0	0.0	
-0.9923664122137404	-44.0	0.6717557251908397	65.0	1.1908396946564885	-78.0	0.3734939759036145	1285.0	9.180722891566266	2016.0	0.024096385542168676	2045.0	-0.43363636363636365	477.0	-0.028181818181818183	-31.0	-0.22653061224489798	222.0	1.5228924783448438E12	1.522892478382E12	2023.4375	768.0	0.0	0.0	
-1.0076335877862594	-49.0	0.7480916030534351	66.0	1.282442748091603	-84.0	0.3734939759036145	1283.0	9.204819277108435	2016.0	0.024096385542168676	2045.0	-0.42727272727272725	470.0	-0.026363636363636363	-29.0	-0.2285714285714286	224.0	1.52289247834875E12	1.522892478383E12	2027.34375	896.0	0.0	0.0	
-0.8702290076335878	-50.0	0.7633587786259541	57.0	1.2213740458015268	-80.0	0.3493975903614458	1285.0	9.180722891566266	2018.0	0.012048192771084338	2046.0	-0.42727272727272725	470.0	-0.016363636363636365	-18.0	-0.22346938775510206	219.0	1.5228924783526563E12	1.522892478384E12	2031.25	1024.0	0.0	0.0	
-0.9923664122137404	-59.0	0.9007633587786259	65.0	1.2213740458015268	-80.0	0.3132530120481928	1283.0	9.204819277108435	2021.0	0.03614457831325302	2044.0	-0.43636363636363634	480.0	-0.03	-33.0	-0.22755102040816327	223.0	1.5228924783565625E12	1.522892478385E12	2035.15625	1152.0	0.0	0.0	
-0.9770992366412213	-57.0	0.8702290076335878	64.0	1.1450381679389312	-75.0	0.30120481927710846	1284.0	9.19277108433735	2022.0	0.024096385542168676	2045.0	-0.43636363636363634	480.0	-0.03272727272727273	-36.0	-0.22755102040816327	223.0	1.5228924783604688E12	1.522892478388E12	2039.0625	1280.0	0.0	0.0	
-0.9770992366412213	-48.0	0.732824427480916	64.0	1.0534351145038168	-69.0	0.27710843373493976	1286.0	9.168674698795181	2024.0	0.03614457831325302	2044.0	-0.43	473.0	-0.03272727272727273	-36.0	-0.2295918367346939	225.0	1.522892478364375E12	1.52289247839E12	2042.96875	1408.0	0.0	0.0	
-1.099236641221374	-52.0	0.7938931297709924	72.0	1.2366412213740459	-81.0	0.27710843373493976	1286.0	9.168674698795181	2024.0	0.04819277108433735	2043.0	-0.43727272727272726	481.0	-0.02090909090909091	-23.0	-0.22755102040816327	223.0	1.5228924783682813E12	1.522892478391E12	2046.875	1536.0	0.0	0.0	
-0.9465648854961831	-46.0	0.7022900763358778	62.0	1.1755725190839694	-77.0	0.30120481927710846	1286.0	9.168674698795181	2022.0	0.060240963855421686	2042.0	-0.4318181818181818	475.0	-0.031818181818181815	-35.0	-0.2285714285714286	224.0	1.5228924783721875E12	1.522892478392E12	2050.78125	1664.0	0.0	0.0	
-1.0076335877862594	-51.0	0.7786259541984732	66.0	1.2213740458015268	-80.0	0.27710843373493976	1286.0	9.168674698795181	2024.0	0.08433734939759037	2040.0	-0.43	473.0	-0.031818181818181815	-35.0	-0.2295918367346939	225.0	1.5228924783760938E12	1.522892478393E12	2054.6875	1792.0	0.0	0.0	
-0.9770992366412213	-43.0	0.6564885496183206	64.0	1.083969465648855	-71.0	0.20481927710843376	1284.0	9.19277108433735	2030.0	0.07228915662650603	2041.0	-0.43454545454545457	478.0	-0.019090909090909092	-21.0	-0.22653061224489798	222.0	1.52289247838E12	1.522892478394E12	2058.59375	1920.0	0.0	0.0	
-0.7786259541984732	-56.0	0.8549618320610687	51.0	1.114503816793893	-73.0	0.1566265060240964	1284.0	9.19277108433735	2034.0	0.08433734939759037	2040.0	-0.43	473.0	-0.03272727272727273	-36.0	-0.23367346938775513	229.0	1.5228924783839063E12	1.522892478395E12	2062.5	2048.0	0.0	0.0	
-0.9618320610687022	-40.0	0.6106870229007634	63.0	1.4809160305343512	-97.0	0.12048192771084337	1285.0	9.180722891566266	2037.0	0.10843373493975904	2038.0	-0.43	473.0	-0.03272727272727273	-36.0	-0.23367346938775513	229.0	1.5228924783878125E12	1.522892478396E12	2066.40625	2176.0	0.0	0.0	
-0.8396946564885496	-41.0	0.6259541984732824	55.0	1.2671755725190839	-83.0	0.13253012048192772	1286.0	9.168674698795181	2036.0	0.10843373493975904	2038.0	-0.4309090909090909	474.0	-0.02909090909090909	-32.0	-0.2285714285714286	224.0	1.5228924783917188E12	1.522892478397E12	2070.3125	2304.0	0.0	0.0	
-0.7938931297709924	-39.0	0.5954198473282443	52.0	1.5267175572519083	-100.0	0.22891566265060243	1285.0	9.180722891566266	2028.0	0.12048192771084337	2037.0	-0.4254545454545455	468.0	-0.025454545454545455	-28.0	-0.2285714285714286	224.0	1.522892478395625E12	1.522892478408E12	2074.21875	2432.0	0.0	0.0	
-0.8244274809160305	-31.0	0.47328244274809156	54.0	1.4961832061068703	-98.0	0.27710843373493976	1286.0	9.168674698795181	2024.0	0.14457831325301207	2035.0	-0.42727272727272725	470.0	-0.0018181818181818182	-2.0	-0.22346938775510206	219.0	1.5228924783995313E12	1.522892478408E12	2078.125	2560.0	0.0	0.0	
-0.8702290076335878	-25.0	0.38167938931297707	57.0	1.3282442748091603	-87.0	0.3373493975903615	1284.0	9.19277108433735	2019.0	0.13253012048192772	2036.0	-0.4309090909090909	474.0	-0.02	-22.0	-0.2285714285714286	224.0	1.5228924784034375E12	1.522892478409E12	2082.03125	2688.0	0.0	0.0	
-0.8091603053435115	-33.0	0.5038167938931297	53.0	1.5267175572519083	-100.0	0.3493975903614458	1283.0	9.204819277108435	2018.0	0.12048192771084337	2037.0	-0.42454545454545456	467.0	-0.005454545454545455	-6.0	-0.22448979591836737	220.0	1.5228924784073438E12	1.522892478417E12	2085.9375	2816.0	0.0	0.0	
-0.8702290076335878	-39.0	0.5954198473282443	57.0	1.2366412213740459	-81.0	0.3132530120481928	1283.0	9.204819277108435	2021.0	0.10843373493975904	2038.0	-0.4318181818181818	475.0	-0.024545454545454544	-27.0	-0.2285714285714286	224.0	1.52289247841125E12	1.522892478418E12	2089.84375	2944.0	0.0	0.0	
-0.916030534351145	-39.0	0.5954198473282443	60.0	1.099236641221374	-72.0	0.26506024096385544	1283.0	9.204819277108435	2025.0	0.10843373493975904	2038.0	-0.4318181818181818	475.0	-0.024545454545454544	-27.0	-0.2285714285714286	224.0	1.5228924784151563E12	1.522892478419E12	2093.75	3072.0	0.0	0.0	
-0.6259541984732824	-41.0	0.6259541984732824	41.0	1.3129770992366412	-86.0	0.24096385542168675	1283.0	9.204819277108435	2027.0	0.08433734939759037	2040.0	-0.4263636363636364	469.0	-0.02090909090909091	-23.0	-0.22653061224489798	222.0	1.5228924784190625E12	1.522892478436E12	2097.65625	3200.0	0.0	0.0	
-0.7022900763358778	-24.0	0.366412213740458	46.0	1.3587786259541985	-89.0	0.26506024096385544	1283.0	9.204819277108435	2025.0	0.060240963855421686	2042.0	-0.42454545454545456	467.0	-0.005454545454545455	-6.0	-0.22551020408163266	221.0	1.5228924784229688E12	1.522892478438E12	2101.5625	3328.0	0.0	0.0	
-0.9312977099236641	-44.0	0.6717557251908397	61.0	1.4351145038167938	-94.0	0.27710843373493976	1283.0	9.204819277108435	2024.0	0.04819277108433735	2043.0	-0.43272727272727274	476.0	-0.028181818181818183	-31.0	-0.2295918367346939	225.0	1.522892478426875E12	1.522892478439E12	2105.46875	3456.0	0.0	0.0	
-0.5343511450381679	-38.0	0.5801526717557252	35.0	1.4809160305343512	-97.0	0.27710843373493976	1284.0	9.19277108433735	2024.0	0.060240963855421686	2042.0	-0.42818181818181816	471.0	-0.023636363636363636	-26.0	-0.22551020408163266	221.0	1.5228924784307813E12	1.52289247844E12	2109.375	3584.0	0.0	0.0	
-0.7633587786259541	-43.0	0.6564885496183206	50.0	1.3740458015267174	-90.0	0.26506024096385544	1284.0	9.19277108433735	2025.0	0.04819277108433735	2043.0	-0.4209090909090909	463.0	-0.022727272727272728	-25.0	-0.22346938775510206	219.0	1.5228924784346875E12	1.522892478441E12	2113.28125	3712.0	0.0	0.0	
-0.8396946564885496	-37.0	0.564885496183206	55.0	1.3282442748091603	-87.0	0.2530120481927711	1284.0	9.19277108433735	2026.0	0.060240963855421686	2042.0	-0.4318181818181818	475.0	-0.03090909090909091	-34.0	-0.2326530612244898	228.0	1.5228924784385938E12	1.522892478442E12	2117.1875	3840.0	0.0	0.0	
-0.7633587786259541	-42.0	0.6412213740458015	50.0	1.2519083969465647	-82.0	0.20481927710843376	1285.0	9.180722891566266	2030.0	0.060240963855421686	2042.0	-0.4318181818181818	475.0	-0.03090909090909091	-34.0	-0.2326530612244898	228.0	1.5228924784425E12	1.522892478453E12	2121.09375	3968.0	0.0	0.0	
-0.5190839694656488	-32.0	0.48854961832061067	34.0	1.282442748091603	-84.0	0.16867469879518074	1285.0	9.180722891566266	2033.0	0.060240963855421686	2042.0	-0.4309090909090909	474.0	-0.02	-22.0	-0.22551020408163266	221.0	1.5228924784464063E12	1.522892478454E12	2125.0	4096.0	0.0	0.0	
-0.8244274809160305	-19.0	0.2900763358778626	54.0	1.4351145038167938	-94.0	0.1927710843373494	1285.0	9.180722891566266	2031.0	0.07228915662650603	2041.0	-0.4354545454545454	479.0	-0.026363636363636363	-29.0	-0.22448979591836737	220.0	1.5228924784503125E12	1.522892478456E12	2128.90625	4224.0	0.0	0.0	
-0.5190839694656488	-28.0	0.42748091603053434	34.0	1.3893129770992365	-91.0	0.1927710843373494	1285.0	9.180722891566266	2031.0	0.060240963855421686	2042.0	-0.43454545454545457	478.0	-0.022727272727272728	-25.0	-0.22244897959183677	218.0	1.5228924784542188E12	1.522892478466E12	2132.8125	4352.0	0.0	0.0	
-0.8091603053435115	-18.0	0.2748091603053435	53.0	1.4045801526717556	-92.0	0.21686746987951808	1286.0	9.168674698795181	2029.0	0.04819277108433735	2043.0	-0.43	473.0	-0.016363636363636365	-18.0	-0.2285714285714286	224.0	1.522892478458125E12	1.522892478468E12	2136.71875	4480.0	0.0	0.0	
-0.7480916030534351	-37.0	0.564885496183206	49.0	1.3893129770992365	-91.0	0.20481927710843376	1286.0	9.168674698795181	2030.0	0.024096385542168676	2045.0	-0.4318181818181818	475.0	-0.03	-33.0	-0.2285714285714286	224.0	1.5228924784620313E12	1.522892478469E12	2140.625	4608.0	0.0	0.0	
-0.549618320610687	-18.0	0.2748091603053435	36.0	1.3435114503816794	-88.0	0.22891566265060243	1284.0	9.19277108433735	2028.0	0.024096385542168676	2045.0	-0.43272727272727274	476.0	-0.015454545454545455	-17.0	-0.22244897959183677	218.0	1.5228924784659375E12	1.52289247848E12	2144.53125	4736.0	0.0	0.0	
-0.8854961832061068	-37.0	0.564885496183206	58.0	1.5419847328244274	-101.0	0.20481927710843376	1285.0	9.180722891566266	2030.0	0.024096385542168676	2045.0	-0.43272727272727274	476.0	-0.015454545454545455	-17.0	-0.22244897959183677	218.0	1.5228924784698438E12	1.52289247848E12	2148.4375	4864.0	0.0	0.0	
-0.9770992366412213	-18.0	0.2748091603053435	64.0	1.450381679389313	-95.0	0.20481927710843376	1284.0	9.19277108433735	2030.0	0.012048192771084338	2046.0	-0.43	473.0	-0.02090909090909091	-23.0	-0.2306122448979592	226.0	1.52289247847375E12	1.522892478484E12	2152.34375	4992.0	0.0	0.0	
-0.7938931297709924	-30.0	0.4580152671755725	52.0	1.618320610687023	-106.0	0.2530120481927711	1287.0	9.156626506024097	2026.0	0.024096385542168676	2045.0	-0.42818181818181816	471.0	-0.028181818181818183	-31.0	-0.2285714285714286	224.0	1.5228924784776563E12	1.522892478529E12	2156.25	5120.0	0.0	0.0	
-0.9618320610687022	-16.0	0.24427480916030533	63.0	1.6030534351145038	-105.0	0.3614457831325301	1287.0	9.156626506024097	2017.0	0.024096385542168676	2045.0	-0.4263636363636364	469.0	-0.023636363636363636	-26.0	-0.22551020408163266	221.0	1.5228924784815625E12	1.52289247853E12	2160.15625	5248.0	0.0	0.0	
-0.8396946564885496	-21.0	0.32061068702290074	55.0	1.5419847328244274	-101.0	0.44578313253012053	1285.0	9.180722891566266	2010.0	0.04819277108433735	2043.0	-0.4309090909090909	474.0	-0.02181818181818182	-24.0	-0.22448979591836737	220.0	1.5228924784854688E12	1.522892478531E12	2164.0625	5376.0	0.0	0.0	
-0.9312977099236641	-32.0	0.48854961832061067	61.0	1.3282442748091603	-87.0	0.43373493975903615	1283.0	9.204819277108435	2011.0	0.060240963855421686	2042.0	-0.42272727272727273	465.0	-0.034545454545454546	-38.0	-0.22653061224489798	222.0	1.522892478489375E12	1.522892478533E12	2167.96875	5504.0	0.0	0.0	
-0.9007633587786259	-42.0	0.6412213740458015	59.0	1.3740458015267174	-90.0	0.3614457831325301	1283.0	9.204819277108435	2017.0	0.03614457831325302	2044.0	-0.4290909090909091	472.0	-0.02909090909090909	-32.0	-0.2285714285714286	224.0	1.5228924784932813E12	1.522892478533E12	2171.875	5632.0	0.0	0.0	
-0.8396946564885496	-56.0	0.8549618320610687	55.0	1.2366412213740459	-81.0	0.26506024096385544	1284.0	9.19277108433735	2025.0	0.012048192771084338	2046.0	-0.4290909090909091	472.0	-0.02909090909090909	-32.0	-0.2285714285714286	224.0	1.5228924784971875E12	1.522892478534E12	2175.78125	5760.0	0.0	0.0	
-0.7938931297709924	-48.0	0.732824427480916	52.0	1.4198473282442747	-93.0	0.24096385542168675	1284.0	9.19277108433735	2027.0	0.0	2047.0	-0.42363636363636364	466.0	-0.02	-22.0	-0.22448979591836737	220.0	1.5228924785010938E12	1.522892478535E12	2179.6875	5888.0	0.0	0.0	
-0.6717557251908397	-35.0	0.5343511450381679	44.0	1.3129770992366412	-86.0	0.26506024096385544	1284.0	9.19277108433735	2025.0	0.0	2047.0	-0.43272727272727274	476.0	-0.031818181818181815	-35.0	-0.22653061224489798	222.0	1.522892478505E12	1.522892478536E12	2183.59375	6016.0	0.0	0.0	
-0.8396946564885496	-39.0	0.5954198473282443	55.0	1.450381679389313	-95.0	0.30120481927710846	1285.0	9.180722891566266	2022.0	0.012048192771084338	2046.0	-0.42818181818181816	471.0	-0.011818181818181818	-13.0	-0.22755102040816327	223.0	1.5228924785089063E12	1.522892478536E12	2187.5	6144.0	0.0	0.0	
-0.8854961832061068	-35.0	0.5343511450381679	58.0	1.3435114503816794	-88.0	0.3373493975903615	1286.0	9.168674698795181	2019.0	0.024096385542168676	2045.0	-0.4318181818181818	475.0	-0.01818181818181818	-20.0	-0.22346938775510206	219.0	1.5228924785128125E12	1.522892478537E12	2191.40625	6272.0	0.0	0.0	
-0.6717557251908397	-44.0	0.6717557251908397	44.0	1.4045801526717556	-92.0	0.3493975903614458	1285.0	9.180722891566266	2018.0	0.024096385542168676	2045.0	-0.4254545454545455	468.0	-0.026363636363636363	-29.0	-0.22653061224489798	222.0	1.5228924785167188E12	1.522892478538E12	2195.3125	6400.0	0.0	0.0	
-0.6717557251908397	-53.0	0.8091603053435115	44.0	1.3893129770992365	-91.0	0.3132530120481928	1285.0	9.180722891566266	2021.0	0.03614457831325302	2044.0	-0.42272727272727273	465.0	-0.01818181818181818	-20.0	-0.2285714285714286	224.0	1.522892478520625E12	1.522892478539E12	2199.21875	6528.0	0.0	0.0	
-0.8091603053435115	-48.0	0.732824427480916	53.0	1.2366412213740459	-81.0	0.20481927710843376	1283.0	9.204819277108435	2030.0	0.04819277108433735	2043.0	-0.42272727272727273	465.0	-0.01818181818181818	-20.0	-0.2285714285714286	224.0	1.5228924785245313E12	1.52289247854E12	2203.125	6656.0	0.0	0.0	
-0.7175572519083969	-44.0	0.6717557251908397	47.0	1.2366412213740459	-81.0	0.14457831325301207	1284.0	9.19277108433735	2035.0	0.060240963855421686	2042.0	-0.43454545454545457	478.0	-0.015454545454545455	-17.0	-0.22040816326530616	216.0	1.5228924785284375E12	1.522892478541E12	2207.03125	6784.0	0.0	0.0	
-0.7633587786259541	-31.0	0.47328244274809156	50.0	1.4351145038167938	-94.0	0.14457831325301207	1285.0	9.180722891566266	2035.0	0.07228915662650603	2041.0	-0.4254545454545455	468.0	-0.024545454545454544	-27.0	-0.2295918367346939	225.0	1.5228924785323438E12	1.522892478542E12	2210.9375	6912.0	0.0	0.0	
-0.8244274809160305	-28.0	0.42748091603053434	54.0	1.4198473282442747	-93.0	0.14457831325301207	1285.0	9.180722891566266	2035.0	0.08433734939759037	2040.0	-0.4263636363636364	469.0	-0.011818181818181818	-13.0	-0.22448979591836737	220.0	1.52289247853625E12	1.522892478553E12	2214.84375	7040.0	0.0	0.0	
-0.8854961832061068	-32.0	0.48854961832061067	58.0	1.5572519083969465	-102.0	0.1927710843373494	1286.0	9.168674698795181	2031.0	0.10843373493975904	2038.0	-0.4354545454545454	479.0	-0.02090909090909091	-23.0	-0.22142857142857145	217.0	1.5228924785401563E12	1.522892478554E12	2218.75	7168.0	0.0	0.0	
-0.7786259541984732	-31.0	0.47328244274809156	51.0	1.450381679389313	-95.0	0.1566265060240964	1285.0	9.180722891566266	2034.0	0.08433734939759037	2040.0	-0.4309090909090909	474.0	-0.012727272727272728	-14.0	-0.22040816326530616	216.0	1.5228924785440625E12	1.522892478555E12	2222.65625	7296.0	0.0	0.0	
-0.7480916030534351	-32.0	0.48854961832061067	49.0	1.3282442748091603	-87.0	0.1566265060240964	1284.0	9.19277108433735	2034.0	0.07228915662650603	2041.0	-0.4309090909090909	474.0	-0.03	-33.0	-0.22040816326530616	216.0	1.5228924785479688E12	1.522892478559E12	2226.5625	7424.0	0.0	0.0	
-0.8091603053435115	-41.0	0.6259541984732824	53.0	1.4351145038167938	-94.0	0.10843373493975904	1287.0	9.156626506024097	2038.0	0.07228915662650603	2041.0	-0.42818181818181816	471.0	-0.03	-33.0	-0.22448979591836737	220.0	1.522892478551875E12	1.52289247856E12	2230.46875	7552.0	0.0	0.0	
-0.5343511450381679	-25.0	0.38167938931297707	35.0	1.3587786259541985	-89.0	0.04819277108433735	1285.0	9.180722891566266	2043.0	0.08433734939759037	2040.0	-0.42727272727272725	470.0	-9.090909090909091E-4	-1.0	-0.23163265306122452	227.0	1.5228924785557813E12	1.522892478561E12	2234.375	7680.0	0.0	0.0	
-0.6259541984732824	-31.0	0.47328244274809156	41.0	1.4809160305343512	-97.0	0.060240963855421686	1285.0	9.180722891566266	2042.0	0.0963855421686747	2039.0	-0.43363636363636365	477.0	-0.028181818181818183	-31.0	-0.22551020408163266	221.0	1.5228924785596875E12	1.522892478566E12	2238.28125	7808.0	0.0	0.0	
-0.6412213740458015	-5.0	0.07633587786259542	42.0	1.66412213740458	-109.0	0.12048192771084337	1285.0	9.180722891566266	2037.0	0.0963855421686747	2039.0	-0.4290909090909091	472.0	-0.026363636363636363	-29.0	-0.22755102040816327	223.0	1.5228924785635938E12	1.522892478574E12	2242.1875	7936.0	0.0	0.0	
-0.7480916030534351	-8.0	0.12213740458015267	49.0	1.7709923664122136	-116.0	0.20481927710843376	1288.0	9.144578313253012	2030.0	0.12048192771084337	2037.0	-0.42454545454545456	467.0	-0.025454545454545455	-28.0	-0.22551020408163266	221.0	1.5228924785675E12	1.522892478575E12	2246.09375	8064.0	0.0	0.0	
-0.7175572519083969	-16.0	0.24427480916030533	47.0	2.0610687022900764	-135.0	0.30120481927710846	1286.0	9.168674698795181	2022.0	0.10843373493975904	2038.0	-0.4318181818181818	475.0	-0.026363636363636363	-29.0	-0.2295918367346939	225.0	1.5228924785714063E12	1.522892478576E12	2250.0	8192.0	0.0	0.0	
-0.6412213740458015	-2.0	0.030534351145038167	42.0	1.9236641221374045	-126.0	0.3855421686746988	1285.0	9.180722891566266	2015.0	0.07228915662650603	2041.0	-0.4318181818181818	475.0	-0.026363636363636363	-29.0	-0.2295918367346939	225.0	1.5228924785753125E12	1.522892478584E12	2253.90625	8320.0	0.0	0.0	
-0.564885496183206	-23.0	0.3511450381679389	37.0	1.7251908396946565	-113.0	0.3855421686746988	1283.0	9.204819277108435	2015.0	0.03614457831325302	2044.0	-0.42727272727272725	470.0	-0.019090909090909092	-21.0	-0.2295918367346939	225.0	1.5228924785792188E12	1.522892478585E12	2257.8125	8448.0	0.0	0.0	
-0.564885496183206	-23.0	0.3511450381679389	37.0	1.7404580152671756	-114.0	0.3855421686746988	1286.0	9.168674698795181	2015.0	0.012048192771084338	2046.0	-0.43272727272727274	476.0	-0.022727272727272728	-25.0	-0.22551020408163266	221.0	1.522892478583125E12	1.522892478586E12	2261.71875	8576.0	0.0	0.0	
-0.5343511450381679	-21.0	0.32061068702290074	35.0	1.648854961832061	-108.0	0.3734939759036145	1283.0	9.204819277108435	2016.0	-0.012048192771084338	2048.0	-0.4309090909090909	474.0	-0.02727272727272727	-30.0	-0.2295918367346939	225.0	1.5228924785870313E12	1.522892478604E12	2265.625	8704.0	0.0	0.0	
-0.6106870229007634	-26.0	0.3969465648854962	40.0	1.816793893129771	-119.0	0.3734939759036145	1283.0	9.204819277108435	2016.0	-0.03614457831325302	2050.0	-0.42818181818181816	471.0	-0.02	-22.0	-0.22551020408163266	221.0	1.5228924785909375E12	1.522892478606E12	2269.53125	8832.0	0.0	0.0	
-0.7480916030534351	-31.0	0.47328244274809156	49.0	1.618320610687023	-106.0	0.3855421686746988	1282.0	9.216867469879519	2015.0	-0.012048192771084338	2048.0	-0.43727272727272726	481.0	-0.023636363636363636	-26.0	-0.22346938775510206	219.0	1.5228924785948438E12	1.522892478607E12	2273.4375	8960.0	0.0	0.0	
-0.564885496183206	-39.0	0.5954198473282443	37.0	1.4045801526717556	-92.0	0.3855421686746988	1282.0	9.216867469879519	2015.0	0.0	2047.0	-0.43363636363636365	477.0	-0.031818181818181815	-35.0	-0.2306122448979592	226.0	1.52289247859875E12	1.522892478611E12	2277.34375	9088.0	0.0	0.0	
-0.366412213740458	-53.0	0.8091603053435115	24.0	1.4351145038167938	-94.0	0.3734939759036145	1282.0	9.216867469879519	2016.0	-0.03614457831325302	2050.0	-0.43363636363636365	477.0	-0.031818181818181815	-35.0	-0.2306122448979592	226.0	1.5228924786026563E12	1.522892478613E12	2281.25	9216.0	0.0	0.0	
-0.7938931297709924	-33.0	0.5038167938931297	52.0	1.4809160305343512	-97.0	0.3493975903614458	1283.0	9.204819277108435	2018.0	-0.04819277108433735	2051.0	-0.42818181818181816	471.0	-0.02	-22.0	-0.22448979591836737	220.0	1.5228924786065625E12	1.522892478614E12	2285.15625	9344.0	0.0	0.0	
-0.6106870229007634	-42.0	0.6412213740458015	40.0	1.4198473282442747	-93.0	0.3493975903614458	1284.0	9.19277108433735	2018.0	-0.04819277108433735	2051.0	-0.43454545454545457	478.0	-0.024545454545454544	-27.0	-0.22142857142857145	217.0	1.5228924786104688E12	1.522892478622E12	2289.0625	9472.0	0.0	0.0	
-0.47328244274809156	-49.0	0.7480916030534351	31.0	1.3129770992366412	-86.0	0.3132530120481928	1284.0	9.19277108433735	2021.0	-0.04819277108433735	2051.0	-0.43363636363636365	477.0	-0.03	-33.0	-0.2306122448979592	226.0	1.522892478614375E12	1.522892478623E12	2292.96875	9600.0	0.0	0.0	
-0.8091603053435115	-32.0	0.48854961832061067	53.0	1.4045801526717556	-92.0	0.30120481927710846	1284.0	9.19277108433735	2022.0	-0.03614457831325302	2050.0	-0.4209090909090909	463.0	-0.025454545454545455	-28.0	-0.22244897959183677	218.0	1.5228924786182813E12	1.522892478624E12	2296.875	9728.0	0.0	0.0	
-0.7938931297709924	-41.0	0.6259541984732824	52.0	1.5572519083969465	-102.0	0.27710843373493976	1283.0	9.204819277108435	2024.0	0.0	2047.0	-0.41545454545454547	457.0	-0.006363636363636364	-7.0	-0.22346938775510206	219.0	1.5228924786221875E12	1.522892478633E12	2300.78125	9856.0	0.0	0.0	
-0.7633587786259541	-39.0	0.5954198473282443	50.0	1.4351145038167938	-94.0	0.24096385542168675	1285.0	9.180722891566266	2027.0	0.012048192771084338	2046.0	-0.4354545454545454	479.0	-0.02909090909090909	-32.0	-0.2306122448979592	226.0	1.5228924786260938E12	1.522892478634E12	2304.6875	9984.0	0.0	0.0	
-0.7938931297709924	-53.0	0.8091603053435115	52.0	1.5267175572519083	-100.0	0.21686746987951808	1283.0	9.204819277108435	2029.0	0.024096385542168676	2045.0	-0.4354545454545454	479.0	-0.02909090909090909	-32.0	-0.2306122448979592	226.0	1.52289247863E12	1.522892478635E12	2308.59375	10112.0	0.0	0.0	
-0.7175572519083969	-26.0	0.3969465648854962	47.0	1.465648854961832	-96.0	0.18072289156626506	1287.0	9.156626506024097	2032.0	0.024096385542168676	2045.0	-0.4290909090909091	472.0	-0.013636363636363636	-15.0	-0.22448979591836737	220.0	1.5228924786339063E12	1.522892478642E12	2312.5	10240.0	0.0	0.0	
-0.7786259541984732	-20.0	0.3053435114503817	51.0	1.5572519083969465	-102.0	0.22891566265060243	1285.0	9.180722891566266	2028.0	0.012048192771084338	2046.0	-0.42272727272727273	465.0	-0.02727272727272727	-30.0	-0.22653061224489798	222.0	1.5228924786378125E12	1.522892478643E12	2316.40625	10368.0	0.0	0.0	
-0.7022900763358778	-26.0	0.3969465648854962	46.0	1.297709923664122	-85.0	0.2530120481927711	1285.0	9.180722891566266	2026.0	0.012048192771084338	2046.0	-0.4309090909090909	474.0	-0.012727272727272728	-14.0	-0.2285714285714286	224.0	1.5228924786417188E12	1.522892478644E12	2320.3125	10496.0	0.0	0.0	
-0.6564885496183206	-33.0	0.5038167938931297	43.0	1.3282442748091603	-87.0	0.26506024096385544	1286.0	9.168674698795181	2025.0	0.024096385542168676	2045.0	-0.43	473.0	-0.016363636363636365	-18.0	-0.2295918367346939	225.0	1.522892478645625E12	1.522892478679E12	2324.21875	10624.0	0.0	0.0	
-0.8854961832061068	-31.0	0.47328244274809156	58.0	1.618320610687023	-106.0	0.26506024096385544	1285.0	9.180722891566266	2025.0	-0.012048192771084338	2048.0	-0.4318181818181818	475.0	-0.03090909090909091	-34.0	-0.22755102040816327	223.0	1.5228924786495313E12	1.52289247868E12	2328.125	10752.0	0.0	0.0	
-0.7938931297709924	-39.0	0.5954198473282443	52.0	1.618320610687023	-106.0	0.26506024096385544	1286.0	9.168674698795181	2025.0	0.024096385542168676	2045.0	-0.43363636363636365	477.0	-0.025454545454545455	-28.0	-0.22244897959183677	218.0	1.5228924786534375E12	1.522892478681E12	2332.03125	10880.0	0.0	0.0	
-0.732824427480916	-23.0	0.3511450381679389	48.0	1.6335877862595418	-107.0	0.24096385542168675	1285.0	9.180722891566266	2027.0	0.0	2047.0	-0.43363636363636365	477.0	-0.025454545454545455	-28.0	-0.22244897959183677	218.0	1.5228924786573438E12	1.522892478682E12	2335.9375	11008.0	0.0	0.0	
-0.9007633587786259	-35.0	0.5343511450381679	59.0	1.5114503816793892	-99.0	0.3373493975903615	1286.0	9.168674698795181	2019.0	0.03614457831325302	2044.0	-0.4263636363636364	469.0	-0.019090909090909092	-21.0	-0.22755102040816327	223.0	1.52289247866125E12	1.522892478683E12	2339.84375	11136.0	0.0	0.0	
-0.7938931297709924	-24.0	0.366412213740458	52.0	1.6335877862595418	-107.0	0.3734939759036145	1286.0	9.168674698795181	2016.0	0.024096385542168676	2045.0	-0.43454545454545457	478.0	-0.03090909090909091	-34.0	-0.22653061224489798	222.0	1.5228924786651563E12	1.522892478684E12	2343.75	11264.0	0.0	0.0	
-0.8854961832061068	-40.0	0.6106870229007634	58.0	1.3740458015267174	-90.0	0.3734939759036145	1283.0	9.204819277108435	2016.0	0.04819277108433735	2043.0	-0.42727272727272725	470.0	-0.02181818181818182	-24.0	-0.2285714285714286	224.0	1.5228924786690625E12	1.522892478686E12	2347.65625	11392.0	0.0	0.0	
-0.7175572519083969	-46.0	0.7022900763358778	47.0	1.5419847328244274	-101.0	0.3132530120481928	1283.0	9.204819277108435	2021.0	0.024096385542168676	2045.0	-0.4290909090909091	472.0	-0.02	-22.0	-0.2306122448979592	226.0	1.5228924786729688E12	1.522892478687E12	2351.5625	11520.0	0.0	0.0	
-0.6259541984732824	-44.0	0.6717557251908397	41.0	1.5725190839694656	-103.0	0.30120481927710846	1284.0	9.19277108433735	2022.0	0.0	2047.0	-0.4354545454545454	479.0	-0.03090909090909091	-34.0	-0.22346938775510206	219.0	1.522892478676875E12	1.522892478688E12	2355.46875	11648.0	0.0	0.0	
-0.732824427480916	-46.0	0.7022900763358778	48.0	1.465648854961832	-96.0	0.27710843373493976	1284.0	9.19277108433735	2024.0	-0.012048192771084338	2048.0	-0.42727272727272725	470.0	-0.025454545454545455	-28.0	-0.2306122448979592	226.0	1.5228924786807813E12	1.52289247869E12	2359.375	11776.0	0.0	0.0	
-0.7175572519083969	-39.0	0.5954198473282443	47.0	1.3893129770992365	-91.0	0.26506024096385544	1282.0	9.216867469879519	2025.0	0.012048192771084338	2046.0	-0.42727272727272725	470.0	-0.025454545454545455	-28.0	-0.2306122448979592	226.0	1.5228924786846875E12	1.522892478691E12	2363.28125	11904.0	0.0	0.0	
-0.9312977099236641	-52.0	0.7938931297709924	61.0	1.66412213740458	-109.0	0.28915662650602414	1284.0	9.19277108433735	2023.0	0.012048192771084338	2046.0	-0.43272727272727274	476.0	-0.024545454545454544	-27.0	-0.22653061224489798	222.0	1.5228924786885938E12	1.522892478694E12	2367.1875	12032.0	0.0	0.0	
-0.9007633587786259	-50.0	0.7633587786259541	59.0	1.5725190839694656	-103.0	0.30120481927710846	1284.0	9.19277108433735	2022.0	0.012048192771084338	2046.0	-0.43363636363636365	477.0	-0.03	-33.0	-0.22551020408163266	221.0	1.5228924786925E12	1.522892478709E12	2371.09375	12160.0	0.0	0.0	
-0.7480916030534351	-39.0	0.5954198473282443	49.0	1.4045801526717556	-92.0	0.30120481927710846	1285.0	9.180722891566266	2022.0	0.012048192771084338	2046.0	-0.43272727272727274	476.0	-0.019090909090909092	-21.0	-0.22346938775510206	219.0	1.5228924786964063E12	1.52289247871E12	2375.0	12288.0	0.0	0.0	
-0.7022900763358778	-44.0	0.6717557251908397	46.0	1.4809160305343512	-97.0	0.28915662650602414	1286.0	9.168674698795181	2023.0	-0.012048192771084338	2048.0	-0.4318181818181818	475.0	-0.023636363636363636	-26.0	-0.22551020408163266	221.0	1.5228924787003125E12	1.522892478711E12	2378.90625	12416.0	0.0	0.0	
-0.7175572519083969	-39.0	0.5954198473282443	47.0	1.297709923664122	-85.0	0.24096385542168675	1284.0	9.19277108433735	2027.0	0.0	2047.0	-0.4354545454545454	479.0	-0.02909090909090909	-32.0	-0.22551020408163266	221.0	1.5228924787042188E12	1.522892478713E12	2382.8125	12544.0	0.0	0.0	
-0.8396946564885496	-34.0	0.5190839694656488	55.0	1.297709923664122	-85.0	0.22891566265060243	1285.0	9.180722891566266	2028.0	0.012048192771084338	2046.0	-0.4354545454545454	479.0	-0.011818181818181818	-13.0	-0.22244897959183677	218.0	1.522892478708125E12	1.522892478714E12	2386.71875	12672.0	0.0	0.0	
-0.9312977099236641	-36.0	0.549618320610687	61.0	1.3893129770992365	-91.0	0.20481927710843376	1284.0	9.19277108433735	2030.0	0.024096385542168676	2045.0	-0.4263636363636364	469.0	-0.011818181818181818	-13.0	-0.22244897959183677	218.0	1.5228924787120313E12	1.522892478714E12	2390.625	12800.0	0.0	0.0	
-0.8702290076335878	-41.0	0.6259541984732824	57.0	1.618320610687023	-106.0	0.18072289156626506	1285.0	9.180722891566266	2032.0	0.03614457831325302	2044.0	-0.43	473.0	-0.013636363636363636	-15.0	-0.22551020408163266	221.0	1.5228924787159375E12	1.52289247873E12	2394.53125	12928.0	0.0	0.0	
-1.0076335877862594	-31.0	0.47328244274809156	66.0	1.3740458015267174	-90.0	0.1927710843373494	1286.0	9.168674698795181	2031.0	0.03614457831325302	2044.0	-0.43727272727272726	481.0	-0.031818181818181815	-35.0	-0.22448979591836737	220.0	1.5228924787198438E12	1.522892478731E12	2398.4375	13056.0	0.0	0.0	
-0.732824427480916	-30.0	0.4580152671755725	48.0	1.618320610687023	-106.0	0.22891566265060243	1286.0	9.168674698795181	2028.0	0.04819277108433735	2043.0	-0.43272727272727274	476.0	-0.024545454545454544	-27.0	-0.22244897959183677	218.0	1.52289247872375E12	1.522892478732E12	2402.34375	13184.0	0.0	0.0	
-0.6717557251908397	-33.0	0.5038167938931297	44.0	1.5114503816793892	-99.0	0.26506024096385544	1285.0	9.180722891566266	2025.0	0.07228915662650603	2041.0	-0.42727272727272725	470.0	-0.03090909090909091	-34.0	-0.22551020408163266	221.0	1.5228924787276563E12	1.522892478738E12	2406.25	13312.0	0.0	0.0	
-0.9923664122137404	-38.0	0.5801526717557252	65.0	1.5877862595419847	-104.0	0.28915662650602414	1285.0	9.180722891566266	2023.0	0.060240963855421686	2042.0	-0.43636363636363634	480.0	-0.03	-33.0	-0.22653061224489798	222.0	1.5228924787315625E12	1.522892478738E12	2410.15625	13440.0	0.0	0.0	
-0.8091603053435115	-41.0	0.6259541984732824	53.0	1.6335877862595418	-107.0	0.27710843373493976	1286.0	9.168674698795181	2024.0	0.060240963855421686	2042.0	-0.43636363636363634	480.0	-0.03	-33.0	-0.22653061224489798	222.0	1.5228924787354688E12	1.522892478739E12	2414.0625	13568.0	0.0	0.0	
-0.7480916030534351	-43.0	0.6564885496183206	49.0	1.4351145038167938	-94.0	0.2530120481927711	1285.0	9.180722891566266	2026.0	0.060240963855421686	2042.0	-0.42818181818181816	471.0	-0.03	-33.0	-0.22755102040816327	223.0	1.522892478739375E12	1.52289247875E12	2417.96875	13696.0	0.0	0.0	
-0.8244274809160305	-18.0	0.2748091603053435	54.0	1.6793893129770991	-110.0	0.26506024096385544	1284.0	9.19277108433735	2025.0	0.07228915662650603	2041.0	-0.43363636363636365	477.0	-0.016363636363636365	-18.0	-0.22346938775510206	219.0	1.5228924787432813E12	1.522892478751E12	2421.875	13824.0	0.0	0.0	
-0.9007633587786259	-36.0	0.549618320610687	59.0	1.4809160305343512	-97.0	0.27710843373493976	1286.0	9.168674698795181	2024.0	0.04819277108433735	2043.0	-0.4318181818181818	475.0	-0.016363636363636365	-18.0	-0.21938775510204084	215.0	1.5228924787471875E12	1.522892478753E12	2425.78125	13952.0	0.0	0.0	
-0.7938931297709924	-36.0	0.549618320610687	52.0	1.6946564885496183	-111.0	0.30120481927710846	1284.0	9.19277108433735	2022.0	0.04819277108433735	2043.0	-0.43	473.0	-0.03	-33.0	-0.2306122448979592	226.0	1.5228924787510938E12	1.522892478765E12	2429.6875	14080.0	0.0	0.0	
-0.916030534351145	-31.0	0.47328244274809156	60.0	1.5114503816793892	-99.0	0.3855421686746988	1285.0	9.180722891566266	2015.0	0.03614457831325302	2044.0	-0.4354545454545454	479.0	-0.02090909090909091	-23.0	-0.22346938775510206	219.0	1.522892478755E12	1.522892478766E12	2433.59375	14208.0	0.0	0.0	
-0.7633587786259541	-36.0	0.549618320610687	50.0	1.5877862595419847	-104.0	0.42168674698795183	1284.0	9.19277108433735	2012.0	0.024096385542168676	2045.0	-0.4318181818181818	475.0	-0.023636363636363636	-26.0	-0.2285714285714286	224.0	1.5228924787589063E12	1.522892478767E12	2437.5	14336.0	0.0	0.0	
-0.7480916030534351	-47.0	0.7175572519083969	49.0	1.3587786259541985	-89.0	0.43373493975903615	1283.0	9.204819277108435	2011.0	0.012048192771084338	2046.0	-0.4318181818181818	475.0	-0.023636363636363636	-26.0	-0.2285714285714286	224.0	1.5228924787628125E12	1.522892478772E12	2441.40625	14464.0	0.0	0.0	
-0.916030534351145	-60.0	0.916030534351145	60.0	1.465648854961832	-96.0	0.3855421686746988	1282.0	9.216867469879519	2015.0	0.0	2047.0	-0.4290909090909091	472.0	-0.02181818181818182	-24.0	-0.22244897959183677	218.0	1.5228924787667188E12	1.522892478773E12	2445.3125	14592.0	0.0	0.0	
-0.8091603053435115	-62.0	0.9465648854961831	53.0	1.3740458015267174	-90.0	0.3253012048192771	1284.0	9.19277108433735	2020.0	-0.012048192771084338	2048.0	-0.4354545454545454	479.0	-0.02	-22.0	-0.22551020408163266	221.0	1.522892478770625E12	1.522892478773E12	2449.21875	14720.0	0.0	0.0	
-0.47328244274809156	-52.0	0.7938931297709924	31.0	1.3435114503816794	-88.0	0.27710843373493976	1285.0	9.180722891566266	2024.0	0.012048192771084338	2046.0	-0.43363636363636365	477.0	-0.024545454545454544	-27.0	-0.2285714285714286	224.0	1.5228924787745313E12	1.522892478785E12	2453.125	14848.0	0.0	0.0	
-0.5954198473282443	-47.0	0.7175572519083969	39.0	1.4045801526717556	-92.0	0.28915662650602414	1284.0	9.19277108433735	2023.0	0.024096385542168676	2045.0	-0.4309090909090909	474.0	-0.014545454545454545	-16.0	-0.22755102040816327	223.0	1.5228924787784375E12	1.522892478786E12	2457.03125	14976.0	0.0	0.0	
-0.8854961832061068	-45.0	0.6870229007633587	58.0	1.66412213740458	-109.0	0.3132530120481928	1284.0	9.19277108433735	2021.0	0.024096385542168676	2045.0	-0.42363636363636364	466.0	-0.02181818181818182	-24.0	-0.21938775510204084	215.0	1.5228924787823438E12	1.522892478788E12	2460.9375	15104.0	0.0	0.0	
-0.6717557251908397	-42.0	0.6412213740458015	44.0	1.5267175572519083	-100.0	0.3132530120481928	1285.0	9.180722891566266	2021.0	0.04819277108433735	2043.0	-0.4318181818181818	475.0	-0.03	-33.0	-0.2285714285714286	224.0	1.52289247878625E12	1.522892478798E12	2464.84375	15232.0	0.0	0.0	
-0.8549618320610687	-40.0	0.6106870229007634	56.0	1.3740458015267174	-90.0	0.30120481927710846	1284.0	9.19277108433735	2022.0	0.03614457831325302	2044.0	-0.4318181818181818	475.0	-0.03	-33.0	-0.2285714285714286	224.0	1.5228924787901563E12	1.522892478798E12	2468.75	15360.0	0.0	0.0	
-0.6564885496183206	-48.0	0.732824427480916	43.0	1.3435114503816794	-88.0	0.27710843373493976	1284.0	9.19277108433735	2024.0	0.04819277108433735	2043.0	-0.4263636363636364	469.0	-0.02	-22.0	-0.2295918367346939	225.0	1.5228924787940625E12	1.522892478799E12	2472.65625	15488.0	0.0	0.0	
-0.732824427480916	-54.0	0.8244274809160305	48.0	1.3587786259541985	-89.0	0.24096385542168675	1286.0	9.168674698795181	2027.0	0.03614457831325302	2044.0	-0.43454545454545457	478.0	-0.023636363636363636	-26.0	-0.22755102040816327	223.0	1.5228924787979688E12	1.522892478839E12	2476.5625	15616.0	0.0	0.0	
-0.9465648854961831	-38.0	0.5801526717557252	62.0	1.282442748091603	-84.0	0.18072289156626506	1286.0	9.168674698795181	2032.0	0.04819277108433735	2043.0	-0.43272727272727274	476.0	-0.013636363636363636	-15.0	-0.21938775510204084	215.0	1.522892478801875E12	1.52289247884E12	2480.46875	15744.0	0.0	0.0	
-0.7786259541984732	-39.0	0.5954198473282443	51.0	1.2519083969465647	-82.0	0.21686746987951808	1286.0	9.168674698795181	2029.0	0.04819277108433735	2043.0	-0.43	473.0	-0.02090909090909091	-23.0	-0.22551020408163266	221.0	1.5228924788057813E12	1.522892478841E12	2484.375	15872.0	0.0	0.0	
-0.6870229007633587	-26.0	0.3969465648854962	45.0	1.5419847328244274	-101.0	0.2530120481927711	1286.0	9.168674698795181	2026.0	0.04819277108433735	2043.0	-0.43454545454545457	478.0	-0.023636363636363636	-26.0	-0.22244897959183677	218.0	1.5228924788096875E12	1.522892478842E12	2488.28125	16000.0	0.0	0.0	
-0.6412213740458015	-32.0	0.48854961832061067	42.0	1.4045801526717556	-92.0	0.27710843373493976	1285.0	9.180722891566266	2024.0	0.060240963855421686	2042.0	-0.43454545454545457	478.0	-0.02909090909090909	-32.0	-0.2285714285714286	224.0	1.5228924788135938E12	1.522892478843E12	2492.1875	16128.0	0.0	0.0	
-0.6412213740458015	-44.0	0.6717557251908397	42.0	1.3587786259541985	-89.0	0.26506024096385544	1283.0	9.204819277108435	2025.0	0.024096385542168676	2045.0	-0.43454545454545457	478.0	-0.02909090909090909	-32.0	-0.2285714285714286	224.0	1.5228924788175E12	1.522892478845E12	2496.09375	16256.0	0.0	0.0	
-0.48854961832061067	-51.0	0.7786259541984732	32.0	1.297709923664122	-85.0	0.24096385542168675	1284.0	9.19277108433735	2027.0	0.0	2047.0	-0.43	473.0	-0.02	-22.0	-0.2285714285714286	224.0	1.5228924788214063E12	1.522892478846E12	2500.0	16384.0	0.0	0.0	
-0.7022900763358778	-56.0	0.8549618320610687	46.0	1.3740458015267174	-90.0	0.22891566265060243	1285.0	9.180722891566266	2028.0	-0.012048192771084338	2048.0	-0.43454545454545457	478.0	-0.025454545454545455	-28.0	-0.22653061224489798	222.0	1.5228924788253125E12	1.522892478847E12	2503.90625	16512.0	0.0	0.0	
-0.6412213740458015	-42.0	0.6412213740458015	42.0	1.3282442748091603	-87.0	0.21686746987951808	1285.0	9.180722891566266	2029.0	-0.024096385542168676	2049.0	-0.43363636363636365	477.0	-0.02909090909090909	-32.0	-0.22551020408163266	221.0	1.5228924788292188E12	1.522892478848E12	2507.8125	16640.0	0.0	0.0	
-0.8396946564885496	-42.0	0.6412213740458015	55.0	1.5419847328244274	-101.0	0.24096385542168675	1285.0	9.180722891566266	2027.0	0.0	2047.0	-0.4290909090909091	472.0	-0.02	-22.0	-0.2285714285714286	224.0	1.522892478833125E12	1.522892478849E12	2511.71875	16768.0	0.0	0.0	
-0.8702290076335878	-32.0	0.48854961832061067	57.0	1.5572519083969465	-102.0	0.3253012048192771	1285.0	9.180722891566266	2020.0	-0.012048192771084338	2048.0	-0.4354545454545454	479.0	-0.031818181818181815	-35.0	-0.22653061224489798	222.0	1.5228924788370313E12	1.522892478861E12	2515.625	16896.0	0.0	0.0	
-0.8549618320610687	-35.0	0.5343511450381679	56.0	1.5572519083969465	-102.0	0.3734939759036145	1286.0	9.168674698795181	2016.0	0.012048192771084338	2046.0	-0.4318181818181818	475.0	-0.02727272727272727	-30.0	-0.2285714285714286	224.0	1.5228924788409375E12	1.522892478862E12	2519.53125	17024.0	0.0	0.0	
-0.7633587786259541	-50.0	0.7633587786259541	50.0	1.7099236641221374	-112.0	0.3614457831325301	1285.0	9.180722891566266	2017.0	0.0	2047.0	-0.4318181818181818	475.0	-0.02727272727272727	-30.0	-0.2285714285714286	224.0	1.5228924788448438E12	1.522892478863E12	2523.4375	17152.0	0.0	0.0	
-0.8396946564885496	-56.0	0.8549618320610687	55.0	1.4351145038167938	-94.0	0.3493975903614458	1284.0	9.19277108433735	2018.0	-0.012048192771084338	2048.0	-0.43	473.0	-0.011818181818181818	-13.0	-0.22142857142857145	217.0	1.52289247884875E12	1.522892478869E12	2527.34375	17280.0	0.0	0.0	
-0.6564885496183206	-52.0	0.7938931297709924	43.0	1.3587786259541985	-89.0	0.3132530120481928	1282.0	9.216867469879519	2021.0	-0.012048192771084338	2048.0	-0.43454545454545457	478.0	-0.02909090909090909	-32.0	-0.22346938775510206	219.0	1.5228924788526563E12	1.52289247887E12	2531.25	17408.0	0.0	0.0	
-0.732824427480916	-51.0	0.7786259541984732	48.0	1.3740458015267174	-90.0	0.30120481927710846	1282.0	9.216867469879519	2022.0	-0.012048192771084338	2048.0	-0.43	473.0	-0.011818181818181818	-13.0	-0.21836734693877552	214.0	1.5228924788565625E12	1.522892478872E12	2535.15625	17536.0	0.0	0.0	
-0.732824427480916	-37.0	0.564885496183206	48.0	1.3587786259541985	-89.0	0.2530120481927711	1283.0	9.204819277108435	2026.0	-0.012048192771084338	2048.0	-0.4218181818181818	464.0	-0.02181818181818182	-24.0	-0.22551020408163266	221.0	1.5228924788604688E12	1.522892478874E12	2539.0625	17664.0	0.0	0.0	
-0.7022900763358778	-56.0	0.8549618320610687	46.0	1.3893129770992365	-91.0	0.26506024096385544	1284.0	9.19277108433735	2025.0	0.024096385542168676	2045.0	-0.43272727272727274	476.0	-0.03	-33.0	-0.22244897959183677	218.0	1.522892478864375E12	1.522892478874E12	2542.96875	17792.0	0.0	0.0	
-0.7633587786259541	-43.0	0.6564885496183206	50.0	1.4045801526717556	-92.0	0.26506024096385544	1283.0	9.204819277108435	2025.0	0.03614457831325302	2044.0	-0.4290909090909091	472.0	-0.023636363636363636	-26.0	-0.22653061224489798	222.0	1.5228924788682813E12	1.522892478875E12	2546.875	17920.0	0.0	0.0	
-0.5190839694656488	-54.0	0.8244274809160305	34.0	1.297709923664122	-85.0	0.27710843373493976	1285.0	9.180722891566266	2024.0	0.03614457831325302	2044.0	-0.4290909090909091	472.0	-0.023636363636363636	-26.0	-0.22653061224489798	222.0	1.5228924788721875E12	1.522892478886E12	2550.78125	18048.0	0.0	0.0	
-0.6412213740458015	-53.0	0.8091603053435115	42.0	1.4198473282442747	-93.0	0.26506024096385544	1285.0	9.180722891566266	2025.0	0.03614457831325302	2044.0	-0.42	462.0	-0.02	-22.0	-0.22653061224489798	222.0	1.5228924788760938E12	1.522892478887E12	2554.6875	18176.0	0.0	0.0	
-0.6870229007633587	-34.0	0.5190839694656488	45.0	1.2213740458015268	-80.0	0.27710843373493976	1287.0	9.156626506024097	2024.0	0.03614457831325302	2044.0	-0.4309090909090909	474.0	-0.03	-33.0	-0.22653061224489798	222.0	1.52289247888E12	1.522892478888E12	2558.59375	18304.0	0.0	0.0	
-0.8091603053435115	-43.0	0.6564885496183206	53.0	1.3893129770992365	-91.0	0.22891566265060243	1284.0	9.19277108433735	2028.0	0.012048192771084338	2046.0	-0.43363636363636365	477.0	-0.02181818181818182	-24.0	-0.22142857142857145	217.0	1.5228924788839063E12	1.522892478893E12	2562.5	18432.0	0.0	0.0	
-0.6564885496183206	-36.0	0.549618320610687	43.0	1.3587786259541985	-89.0	0.20481927710843376	1285.0	9.180722891566266	2030.0	0.012048192771084338	2046.0	-0.4309090909090909	474.0	-0.023636363636363636	-26.0	-0.22448979591836737	220.0	1.5228924788878125E12	1.522892478894E12	2566.40625	18560.0	0.0	0.0	
-0.7786259541984732	-40.0	0.6106870229007634	51.0	1.4351145038167938	-94.0	0.21686746987951808	1285.0	9.180722891566266	2029.0	0.0	2047.0	-0.43636363636363634	480.0	-0.03	-33.0	-0.22551020408163266	221.0	1.5228924788917188E12	1.522892478895E12	2570.3125	18688.0	0.0	0.0	
-0.9923664122137404	-37.0	0.564885496183206	65.0	1.465648854961832	-96.0	0.20481927710843376	1283.0	9.204819277108435	2030.0	0.03614457831325302	2044.0	-0.43636363636363634	480.0	-0.017272727272727273	-19.0	-0.2295918367346939	225.0	1.522892478895625E12	1.522892478905E12	2574.21875	18816.0	0.0	0.0	
-0.7938931297709924	-50.0	0.7633587786259541	52.0	1.4351145038167938	-94.0	0.1927710843373494	1286.0	9.168674698795181	2031.0	0.04819277108433735	2043.0	-0.42818181818181816	471.0	-0.017272727272727273	-19.0	-0.2295918367346939	225.0	1.5228924788995313E12	1.522892478906E12	2578.125	18944.0	0.0	0.0	
-0.732824427480916	-52.0	0.7938931297709924	48.0	1.6335877862595418	-107.0	0.1566265060240964	1284.0	9.19277108433735	2034.0	0.03614457831325302	2044.0	-0.4309090909090909	474.0	-0.015454545454545455	-17.0	-0.22551020408163266	221.0	1.5228924789034375E12	1.522892478907E12	2582.03125	19072.0	0.0	0.0	
-0.8549618320610687	-48.0	0.732824427480916	56.0	1.5267175572519083	-100.0	0.21686746987951808	1286.0	9.168674698795181	2029.0	0.024096385542168676	2045.0	-0.43272727272727274	476.0	-0.012727272727272728	-14.0	-0.21734693877551023	213.0	1.5228924789073438E12	1.522892478923E12	2585.9375	19200.0	0.0	0.0	
-0.8244274809160305	-40.0	0.6106870229007634	54.0	1.648854961832061	-108.0	0.26506024096385544	1284.0	9.19277108433735	2025.0	0.012048192771084338	2046.0	-0.42727272727272725	470.0	-0.025454545454545455	-28.0	-0.2285714285714286	224.0	1.52289247891125E12	1.522892478924E12	2589.84375	19328.0	0.0	0.0	
-0.6564885496183206	-36.0	0.549618320610687	43.0	1.450381679389313	-95.0	0.24096385542168675	1283.0	9.204819277108435	2027.0	0.024096385542168676	2045.0	-0.43272727272727274	476.0	-0.02	-22.0	-0.22346938775510206	219.0	1.5228924789151563E12	1.522892478926E12	2593.75	19456.0	0.0	0.0	
-0.8854961832061068	-61.0	0.9312977099236641	58.0	1.4809160305343512	-97.0	0.22891566265060243	1285.0	9.180722891566266	2028.0	0.04819277108433735	2043.0	-0.42454545454545456	467.0	-0.01090909090909091	-12.0	-0.2295918367346939	225.0	1.5228924789190625E12	1.522892478941E12	2597.65625	19584.0	0.0	0.0	
-0.6564885496183206	-40.0	0.6106870229007634	43.0	1.3129770992366412	-86.0	0.16867469879518074	1284.0	9.19277108433735	2033.0	0.012048192771084338	2046.0	-0.42454545454545456	467.0	-0.01090909090909091	-12.0	-0.2295918367346939	225.0	1.5228924789229688E12	1.522892478941E12	2601.5625	19712.0	0.0	0.0	
-0.8396946564885496	-36.0	0.549618320610687	55.0	1.4809160305343512	-97.0	0.13253012048192772	1285.0	9.180722891566266	2036.0	0.03614457831325302	2044.0	-0.42727272727272725	470.0	-0.02727272727272727	-30.0	-0.22755102040816327	223.0	1.522892478926875E12	1.522892478942E12	2605.46875	19840.0	0.0	0.0	
-0.6106870229007634	-36.0	0.549618320610687	40.0	1.66412213740458	-109.0	0.13253012048192772	1286.0	9.168674698795181	2036.0	0.024096385542168676	2045.0	-0.43454545454545457	478.0	-0.02090909090909091	-23.0	-0.22346938775510206	219.0	1.5228924789307813E12	1.522892478944E12	2609.375	19968.0	0.0	0.0	
-0.8854961832061068	-31.0	0.47328244274809156	58.0	1.6946564885496183	-111.0	0.24096385542168675	1286.0	9.168674698795181	2027.0	0.024096385542168676	2045.0	-0.4354545454545454	479.0	-0.03	-33.0	-0.22448979591836737	220.0	1.5228924789346875E12	1.522892478945E12	2613.28125	20096.0	0.0	0.0	
-0.8549618320610687	-38.0	0.5801526717557252	56.0	1.7404580152671756	-114.0	0.3253012048192771	1285.0	9.180722891566266	2020.0	0.024096385542168676	2045.0	-0.4290909090909091	472.0	-0.031818181818181815	-35.0	-0.2295918367346939	225.0	1.5228924789385938E12	1.522892478946E12	2617.1875	20224.0	0.0	0.0	
-0.7633587786259541	-35.0	0.5343511450381679	50.0	1.4961832061068703	-98.0	0.3373493975903615	1284.0	9.19277108433735	2019.0	0.024096385542168676	2045.0	-0.43363636363636365	477.0	-0.02090909090909091	-23.0	-0.22551020408163266	221.0	1.5228924789425E12	1.522892478952E12	2621.09375	20352.0	0.0	0.0	
-0.8396946564885496	-48.0	0.732824427480916	55.0	1.5877862595419847	-104.0	0.28915662650602414	1283.0	9.204819277108435	2023.0	0.024096385542168676	2045.0	-0.43272727272727274	476.0	-0.026363636363636363	-29.0	-0.22755102040816327	223.0	1.5228924789464063E12	1.522892478952E12	2625.0	20480.0	0.0	0.0	
-0.8244274809160305	-36.0	0.549618320610687	54.0	1.5267175572519083	-100.0	0.2530120481927711	1284.0	9.19277108433735	2026.0	0.012048192771084338	2046.0	-0.43272727272727274	476.0	-0.026363636363636363	-29.0	-0.22755102040816327	223.0	1.5228924789503125E12	1.522892478953E12	2628.90625	20608.0	0.0	0.0	
-0.8244274809160305	-41.0	0.6259541984732824	54.0	1.7251908396946565	-113.0	0.24096385542168675	1285.0	9.180722891566266	2027.0	0.03614457831325302	2044.0	-0.4290909090909091	472.0	-0.02727272727272727	-30.0	-0.22448979591836737	220.0	1.5228924789542188E12	1.52289247899E12	2632.8125	20736.0	0.0	0.0	
-0.6564885496183206	-32.0	0.48854961832061067	43.0	1.5267175572519083	-100.0	0.2530120481927711	1285.0	9.180722891566266	2026.0	0.024096385542168676	2045.0	-0.4354545454545454	479.0	-0.02	-22.0	-0.22244897959183677	218.0	1.522892478958125E12	1.522892478991E12	2636.71875	20864.0	0.0	0.0	
-0.6870229007633587	-35.0	0.5343511450381679	45.0	1.4809160305343512	-97.0	0.26506024096385544	1285.0	9.180722891566266	2025.0	0.024096385542168676	2045.0	-0.4309090909090909	474.0	-0.02181818181818182	-24.0	-0.22755102040816327	223.0	1.5228924789620313E12	1.522892478992E12	2640.625	20992.0	0.0	0.0	
-0.7022900763358778	-33.0	0.5038167938931297	46.0	1.83206106870229	-120.0	0.30120481927710846	1284.0	9.19277108433735	2022.0	0.024096385542168676	2045.0	-0.4290909090909091	472.0	-0.023636363636363636	-26.0	-0.22448979591836737	220.0	1.5228924789659375E12	1.522892479002E12	2644.53125	21120.0	0.0	0.0	
-0.6106870229007634	-53.0	0.8091603053435115	40.0	1.4961832061068703	-98.0	0.3253012048192771	1284.0	9.19277108433735	2020.0	0.0	2047.0	-0.43363636363636365	477.0	-0.02181818181818182	-24.0	-0.22346938775510206	219.0	1.5228924789698438E12	1.522892479002E12	2648.4375	21248.0	0.0	0.0	
