left thigh	left thigh	left thigh	left thigh	left thigh	left thigh	left thigh	left thigh	left thigh	left thigh	left thigh	left thigh	left thigh	left thigh	left thigh	left thigh	left thigh	left thigh	left thigh	left thigh	left thigh	left thigh	Annotation	Annotation	
Gyroscope X	Gyroscope X	Gyroscope Y	Gyroscope Y	Gyroscope Z	Gyroscope Z	Low Noise Accelerometer X	Low Noise Accelerometer X	Low Noise Accelerometer Y	Low Noise Accelerometer Y	Low Noise Accelerometer Z	Low Noise Accelerometer Z	Magnetometer X	Magnetometer X	Magnetometer Y	Magnetometer Y	Magnetometer Z	Magnetometer Z	SyncTimestamp	SystemTimestamp	Timestamp	Timestamp	Level	Pulse	
CAL	RAW	CAL	RAW	CAL	RAW	CAL	RAW	CAL	RAW	CAL	RAW	CAL	RAW	CAL	RAW	CAL	RAW	CAL	UNCAL	CAL	RAW	no format	no format	
deg/s	No Units	deg/s	No Units	deg/s	No Units	m/s^2	No Units	m/s^2	No Units	m/s^2	No Units	local flux	No Units	local flux	No Units	local flux	No Units	mSecs	mSecs	mSecs	No Units	no unit	no unit	
-0.42748091603053434	-29.0	0.4427480916030534	28.0	1.7099236641221374	-112.0	0.0	1286.0	9.168674698795181	2047.0	0.012048192771084338	2046.0	-0.41909090909090907	461.0	-0.004545454545454545	-5.0	-0.22448979591836737	220.0	1.522892504901875E12	1.522892504914E12	582.03125	19072.0	0.0	0.0	
-0.564885496183206	-16.0	0.24427480916030533	37.0	1.7251908396946565	-113.0	0.03614457831325302	1285.0	9.180722891566266	2044.0	0.012048192771084338	2046.0	-0.41909090909090907	461.0	-0.019090909090909092	-21.0	-0.22755102040816327	223.0	1.5228925049057813E12	1.522892504916E12	585.9375	19200.0	0.0	0.0	
-0.5801526717557252	-8.0	0.12213740458015267	38.0	1.6793893129770991	-110.0	0.08433734939759037	1286.0	9.168674698795181	2040.0	0.024096385542168676	2045.0	-0.4090909090909091	450.0	-0.012727272727272728	-14.0	-0.22653061224489798	222.0	1.5228925049096875E12	1.522892504916E12	589.84375	19328.0	0.0	0.0	
-0.47328244274809156	-27.0	0.41221374045801523	31.0	1.648854961832061	-108.0	0.14457831325301207	1284.0	9.19277108433735	2035.0	-0.012048192771084338	2048.0	-0.42363636363636364	466.0	-0.023636363636363636	-26.0	-0.22755102040816327	223.0	1.5228925049135938E12	1.522892504917E12	593.75	19456.0	0.0	0.0	
-0.47328244274809156	-17.0	0.2595419847328244	31.0	1.6030534351145038	-105.0	0.1927710843373494	1284.0	9.19277108433735	2031.0	-0.012048192771084338	2048.0	-0.42363636363636364	466.0	-0.023636363636363636	-26.0	-0.22755102040816327	223.0	1.5228925049175E12	1.522892504934E12	597.65625	19584.0	0.0	0.0	
-0.366412213740458	-13.0	0.1984732824427481	24.0	1.7404580152671756	-114.0	0.18072289156626506	1282.0	9.216867469879519	2032.0	-0.024096385542168676	2049.0	-0.41454545454545455	456.0	-0.024545454545454544	-27.0	-0.22755102040816327	223.0	1.5228925049214063E12	1.522892504934E12	601.5625	19712.0	0.0	0.0	
-0.5190839694656488	-47.0	0.7175572519083969	34.0	1.4351145038167938	-94.0	0.10843373493975904	1285.0	9.180722891566266	2038.0	-0.03614457831325302	2050.0	-0.4209090909090909	463.0	-0.019090909090909092	-21.0	-0.22755102040816327	223.0	1.5228925049253125E12	1.52289250494E12	605.46875	19840.0	0.0	0.0	
-0.41221374045801523	-51.0	0.7786259541984732	27.0	1.465648854961832	-96.0	0.060240963855421686	1283.0	9.204819277108435	2042.0	-0.04819277108433735	2051.0	-0.4218181818181818	464.0	-0.00909090909090909	-10.0	-0.21836734693877552	214.0	1.5228925049292188E12	1.522892504941E12	609.375	19968.0	0.0	0.0	
-0.48854961832061067	-38.0	0.5801526717557252	32.0	1.5877862595419847	-104.0	0.04819277108433735	1283.0	9.204819277108435	2043.0	-0.07228915662650603	2053.0	-0.41545454545454547	457.0	-0.015454545454545455	-17.0	-0.2295918367346939	225.0	1.522892504933125E12	1.522892504941E12	613.28125	20096.0	0.0	0.0	
-0.3969465648854962	-32.0	0.48854961832061067	26.0	1.7862595419847327	-117.0	0.10843373493975904	1282.0	9.216867469879519	2038.0	-0.04819277108433735	2051.0	-0.42	462.0	-0.01090909090909091	-12.0	-0.22448979591836737	220.0	1.5228925049370313E12	1.522892504942E12	617.1875	20224.0	0.0	0.0	
-0.549618320610687	-41.0	0.6259541984732824	36.0	1.7099236641221374	-112.0	0.12048192771084337	1283.0	9.204819277108435	2037.0	-0.03614457831325302	2050.0	-0.4127272727272727	454.0	-0.00909090909090909	-10.0	-0.2306122448979592	226.0	1.5228925049409375E12	1.522892504956E12	621.09375	20352.0	0.0	0.0	
-0.6412213740458015	-50.0	0.7633587786259541	42.0	1.5267175572519083	-100.0	0.10843373493975904	1283.0	9.204819277108435	2038.0	-0.024096385542168676	2049.0	-0.4127272727272727	454.0	-0.00909090909090909	-10.0	-0.2306122448979592	226.0	1.5228925049448438E12	1.522892504957E12	625.0	20480.0	0.0	0.0	
-0.5954198473282443	-60.0	0.916030534351145	39.0	1.648854961832061	-108.0	0.060240963855421686	1284.0	9.19277108433735	2042.0	-0.024096385542168676	2049.0	-0.41545454545454547	457.0	-0.02090909090909091	-23.0	-0.2295918367346939	225.0	1.52289250494875E12	1.522892504957E12	628.90625	20608.0	0.0	0.0	
-0.7022900763358778	-49.0	0.7480916030534351	46.0	1.4351145038167938	-94.0	0.012048192771084338	1283.0	9.204819277108435	2046.0	-0.012048192771084338	2048.0	-0.42454545454545456	467.0	-0.014545454545454545	-16.0	-0.22448979591836737	220.0	1.5228925049526563E12	1.52289250496E12	632.8125	20736.0	0.0	0.0	
-0.549618320610687	-46.0	0.7022900763358778	36.0	1.3587786259541985	-89.0	-0.012048192771084338	1283.0	9.204819277108435	2048.0	-0.012048192771084338	2048.0	-0.42272727272727273	465.0	-0.02090909090909091	-23.0	-0.22653061224489798	222.0	1.5228925049565625E12	1.522892504961E12	636.71875	20864.0	0.0	0.0	
-0.8091603053435115	-33.0	0.5038167938931297	53.0	1.3129770992366412	-86.0	-0.03614457831325302	1284.0	9.19277108433735	2050.0	0.03614457831325302	2044.0	-0.41818181818181815	460.0	-0.026363636363636363	-29.0	-0.2285714285714286	224.0	1.5228925049604688E12	1.522892504962E12	640.625	20992.0	0.0	0.0	
-0.6412213740458015	-29.0	0.4427480916030534	42.0	1.4809160305343512	-97.0	-0.04819277108433735	1285.0	9.180722891566266	2051.0	0.07228915662650603	2041.0	-0.4218181818181818	464.0	-0.02	-22.0	-0.22653061224489798	222.0	1.522892504964375E12	1.522892504976E12	644.53125	21120.0	0.0	0.0	
-0.732824427480916	-29.0	0.4427480916030534	48.0	1.3893129770992365	-91.0	-0.04819277108433735	1286.0	9.168674698795181	2051.0	0.08433734939759037	2040.0	-0.41909090909090907	461.0	-0.008181818181818182	-9.0	-0.22040816326530616	216.0	1.5228925049682813E12	1.522892504977E12	648.4375	21248.0	0.0	0.0	
-0.6106870229007634	-28.0	0.42748091603053434	40.0	1.5725190839694656	-103.0	-0.060240963855421686	1286.0	9.168674698795181	2052.0	0.10843373493975904	2038.0	-0.41909090909090907	461.0	-0.008181818181818182	-9.0	-0.22040816326530616	216.0	1.5228925049721875E12	1.522892504978E12	652.34375	21376.0	0.0	0.0	
-0.4580152671755725	-20.0	0.3053435114503817	30.0	1.83206106870229	-120.0	-0.03614457831325302	1284.0	9.19277108433735	2050.0	0.08433734939759037	2040.0	-0.4172727272727273	459.0	-0.02090909090909091	-23.0	-0.22653061224489798	222.0	1.5228925049760938E12	1.522892505E12	656.25	21504.0	0.0	0.0	
-0.48854961832061067	-11.0	0.16793893129770993	32.0	1.5877862595419847	-104.0	-0.012048192771084338	1285.0	9.180722891566266	2048.0	0.0963855421686747	2039.0	-0.4218181818181818	464.0	-0.015454545454545455	-17.0	-0.22653061224489798	222.0	1.52289250498E12	1.522892505001E12	660.15625	21632.0	0.0	0.0	
-0.32061068702290074	-26.0	0.3969465648854962	21.0	1.6030534351145038	-105.0	0.012048192771084338	1285.0	9.180722891566266	2046.0	0.08433734939759037	2040.0	-0.42	462.0	-0.02181818181818182	-24.0	-0.2285714285714286	224.0	1.5228925049839063E12	1.522892505002E12	664.0625	21760.0	0.0	0.0	
-0.5038167938931297	-33.0	0.5038167938931297	33.0	1.4351145038167938	-94.0	0.012048192771084338	1284.0	9.19277108433735	2046.0	0.0963855421686747	2039.0	-0.41545454545454547	457.0	-0.015454545454545455	-17.0	-0.22653061224489798	222.0	1.5228925049878125E12	1.522892505003E12	667.96875	21888.0	0.0	0.0	
-0.7786259541984732	-20.0	0.3053435114503817	51.0	1.5114503816793892	-99.0	0.012048192771084338	1283.0	9.204819277108435	2046.0	0.0963855421686747	2039.0	-0.4254545454545455	468.0	-0.016363636363636365	-18.0	-0.22448979591836737	220.0	1.5228925049917188E12	1.522892505003E12	671.875	22016.0	0.0	0.0	
-0.5190839694656488	-21.0	0.32061068702290074	34.0	1.5572519083969465	-102.0	0.024096385542168676	1283.0	9.204819277108435	2045.0	0.08433734939759037	2040.0	-0.42363636363636364	466.0	-0.026363636363636363	-29.0	-0.2285714285714286	224.0	1.522892504995625E12	1.522892505004E12	675.78125	22144.0	0.0	0.0	
-0.366412213740458	-21.0	0.32061068702290074	24.0	1.7404580152671756	-114.0	0.024096385542168676	1284.0	9.19277108433735	2045.0	0.08433734939759037	2040.0	-0.42363636363636364	466.0	-0.026363636363636363	-29.0	-0.2285714285714286	224.0	1.5228925049995313E12	1.522892505017E12	679.6875	22272.0	0.0	0.0	
-0.48854961832061067	-34.0	0.5190839694656488	32.0	1.4351145038167938	-94.0	0.024096385542168676	1284.0	9.19277108433735	2045.0	0.060240963855421686	2042.0	-0.4172727272727273	459.0	-0.01	-11.0	-0.22755102040816327	223.0	1.5228925050034375E12	1.522892505017E12	683.59375	22400.0	0.0	0.0	
-0.3969465648854962	-28.0	0.42748091603053434	26.0	1.6946564885496183	-111.0	0.024096385542168676	1284.0	9.19277108433735	2045.0	0.060240963855421686	2042.0	-0.42272727272727273	465.0	-0.01818181818181818	-20.0	-0.2285714285714286	224.0	1.5228925050073438E12	1.522892505018E12	687.5	22528.0	0.0	0.0	
-0.32061068702290074	-18.0	0.2748091603053435	21.0	1.465648854961832	-96.0	0.024096385542168676	1283.0	9.204819277108435	2045.0	0.024096385542168676	2045.0	-0.4218181818181818	464.0	-0.026363636363636363	-29.0	-0.2285714285714286	224.0	1.52289250501125E12	1.522892505025E12	691.40625	22656.0	0.0	0.0	
-0.12213740458015267	-24.0	0.366412213740458	8.0	1.5877862595419847	-104.0	0.024096385542168676	1284.0	9.19277108433735	2045.0	0.0	2047.0	-0.41909090909090907	461.0	-0.01090909090909091	-12.0	-0.22244897959183677	218.0	1.5228925050151563E12	1.522892505026E12	695.3125	22784.0	0.0	0.0	
-0.38167938931297707	-21.0	0.32061068702290074	25.0	1.618320610687023	-106.0	0.03614457831325302	1285.0	9.180722891566266	2044.0	0.012048192771084338	2046.0	-0.42454545454545456	467.0	-0.017272727272727273	-19.0	-0.22653061224489798	222.0	1.5228925050190625E12	1.522892505027E12	699.21875	22912.0	0.0	0.0	
-0.366412213740458	-39.0	0.5954198473282443	24.0	1.7709923664122136	-116.0	0.03614457831325302	1283.0	9.204819277108435	2044.0	0.0	2047.0	-0.4218181818181818	464.0	-0.02727272727272727	-30.0	-0.23163265306122452	227.0	1.5228925050229688E12	1.522892505032E12	703.125	23040.0	0.0	0.0	
-0.366412213740458	-30.0	0.4580152671755725	24.0	1.6793893129770991	-110.0	0.060240963855421686	1285.0	9.180722891566266	2042.0	-0.012048192771084338	2048.0	-0.4218181818181818	464.0	-0.02727272727272727	-30.0	-0.23163265306122452	227.0	1.522892505026875E12	1.522892505032E12	707.03125	23168.0	0.0	0.0	
-0.5343511450381679	-34.0	0.5190839694656488	35.0	1.5725190839694656	-103.0	0.04819277108433735	1285.0	9.180722891566266	2043.0	-0.024096385542168676	2049.0	-0.41818181818181815	460.0	-0.017272727272727273	-19.0	-0.22755102040816327	223.0	1.5228925050307813E12	1.522892505033E12	710.9375	23296.0	0.0	0.0	
-0.2595419847328244	-22.0	0.33587786259541985	17.0	1.6946564885496183	-111.0	0.04819277108433735	1285.0	9.180722891566266	2043.0	-0.012048192771084338	2048.0	-0.4118181818181818	453.0	-0.02	-22.0	-0.22448979591836737	220.0	1.5228925050346875E12	1.522892505047E12	714.84375	23424.0	0.0	0.0	
-0.4427480916030534	-29.0	0.4427480916030534	29.0	1.6793893129770991	-110.0	0.024096385542168676	1283.0	9.204819277108435	2045.0	0.012048192771084338	2046.0	-0.42272727272727273	465.0	-0.02181818181818182	-24.0	-0.22244897959183677	218.0	1.5228925050385938E12	1.522892505047E12	718.75	23552.0	0.0	0.0	
-0.5038167938931297	-19.0	0.2900763358778626	33.0	1.5419847328244274	-101.0	0.012048192771084338	1284.0	9.19277108433735	2046.0	0.0	2047.0	-0.41818181818181815	460.0	-0.012727272727272728	-14.0	-0.22653061224489798	222.0	1.5228925050425E12	1.522892505048E12	722.65625	23680.0	0.0	0.0	
-0.4580152671755725	-33.0	0.5038167938931297	30.0	1.3282442748091603	-87.0	-0.024096385542168676	1284.0	9.19277108433735	2049.0	-0.012048192771084338	2048.0	-0.42272727272727273	465.0	-0.028181818181818183	-31.0	-0.22755102040816327	223.0	1.5228925050464063E12	1.522892505072E12	726.5625	23808.0	0.0	0.0	
-0.42748091603053434	-30.0	0.4580152671755725	28.0	1.66412213740458	-109.0	-0.024096385542168676	1284.0	9.19277108433735	2049.0	-0.012048192771084338	2048.0	-0.42272727272727273	465.0	-0.026363636363636363	-29.0	-0.22755102040816327	223.0	1.5228925050503125E12	1.522892505073E12	730.46875	23936.0	0.0	0.0	
-0.564885496183206	-25.0	0.38167938931297707	37.0	1.6335877862595418	-107.0	-0.04819277108433735	1283.0	9.204819277108435	2051.0	-0.012048192771084338	2048.0	-0.4218181818181818	464.0	-0.026363636363636363	-29.0	-0.2306122448979592	226.0	1.5228925050542188E12	1.522892505075E12	734.375	24064.0	0.0	0.0	
-0.41221374045801523	-20.0	0.3053435114503817	27.0	1.66412213740458	-109.0	-0.024096385542168676	1283.0	9.204819277108435	2049.0	-0.012048192771084338	2048.0	-0.41818181818181815	460.0	-0.01090909090909091	-12.0	-0.22551020408163266	221.0	1.522892505058125E12	1.522892505076E12	738.28125	24192.0	0.0	0.0	
-0.4427480916030534	-11.0	0.16793893129770993	29.0	1.7404580152671756	-114.0	0.012048192771084338	1284.0	9.19277108433735	2046.0	0.0	2047.0	-0.41545454545454547	457.0	-0.00909090909090909	-10.0	-0.2285714285714286	224.0	1.5228925050620313E12	1.522892505083E12	742.1875	24320.0	0.0	0.0	
-0.4580152671755725	-25.0	0.38167938931297707	30.0	1.8473282442748091	-121.0	0.04819277108433735	1285.0	9.180722891566266	2043.0	0.0	2047.0	-0.41818181818181815	460.0	-0.025454545454545455	-28.0	-0.22653061224489798	222.0	1.5228925050659375E12	1.522892505084E12	746.09375	24448.0	0.0	0.0	
-0.48854961832061067	-23.0	0.3511450381679389	32.0	1.7557251908396947	-115.0	0.060240963855421686	1285.0	9.180722891566266	2042.0	0.0	2047.0	-0.42	462.0	-0.016363636363636365	-18.0	-0.2285714285714286	224.0	1.5228925050698438E12	1.522892505085E12	750.0	24576.0	0.0	0.0	
-0.564885496183206	-35.0	0.5343511450381679	37.0	1.8625954198473282	-122.0	0.060240963855421686	1285.0	9.180722891566266	2042.0	-0.024096385542168676	2049.0	-0.41909090909090907	461.0	-0.025454545454545455	-28.0	-0.22346938775510206	219.0	1.52289250507375E12	1.522892505087E12	753.90625	24704.0	0.0	0.0	
-0.5343511450381679	-28.0	0.42748091603053434	35.0	1.5877862595419847	-104.0	0.04819277108433735	1285.0	9.180722891566266	2043.0	-0.024096385542168676	2049.0	-0.41909090909090907	461.0	-0.025454545454545455	-28.0	-0.22346938775510206	219.0	1.5228925050776563E12	1.522892505088E12	757.8125	24832.0	0.0	0.0	
-0.48854961832061067	-12.0	0.183206106870229	32.0	1.7557251908396947	-115.0	0.08433734939759037	1284.0	9.19277108433735	2040.0	-0.04819277108433735	2051.0	-0.41818181818181815	460.0	-0.01818181818181818	-20.0	-0.2285714285714286	224.0	1.5228925050815625E12	1.52289250509E12	761.71875	24960.0	0.0	0.0	
-0.2748091603053435	-21.0	0.32061068702290074	18.0	1.8015267175572518	-118.0	0.13253012048192772	1284.0	9.19277108433735	2036.0	-0.060240963855421686	2052.0	-0.4209090909090909	463.0	-0.016363636363636365	-18.0	-0.22040816326530616	216.0	1.5228925050854688E12	1.522892505096E12	765.625	25088.0	0.0	0.0	
-0.5954198473282443	-29.0	0.4427480916030534	39.0	1.7862595419847327	-117.0	0.16867469879518074	1283.0	9.204819277108435	2033.0	-0.07228915662650603	2053.0	-0.41818181818181815	460.0	-0.005454545454545455	-6.0	-0.22448979591836737	220.0	1.522892505089375E12	1.522892505097E12	769.53125	25216.0	0.0	0.0	
-0.5801526717557252	-26.0	0.3969465648854962	38.0	1.5725190839694656	-103.0	0.1566265060240964	1282.0	9.216867469879519	2034.0	-0.08433734939759037	2054.0	-0.4163636363636364	458.0	-0.015454545454545455	-17.0	-0.2285714285714286	224.0	1.5228925050932813E12	1.522892505098E12	773.4375	25344.0	0.0	0.0	
-0.6717557251908397	-45.0	0.6870229007633587	44.0	1.618320610687023	-106.0	0.13253012048192772	1283.0	9.204819277108435	2036.0	-0.0963855421686747	2055.0	-0.42363636363636364	466.0	-0.02090909090909091	-23.0	-0.22551020408163266	221.0	1.5228925050971875E12	1.522892505117E12	777.34375	25472.0	0.0	0.0	
-0.5343511450381679	-44.0	0.6717557251908397	35.0	1.450381679389313	-95.0	0.0963855421686747	1283.0	9.204819277108435	2039.0	-0.0963855421686747	2055.0	-0.42454545454545456	467.0	-0.025454545454545455	-28.0	-0.22551020408163266	221.0	1.5228925051010938E12	1.522892505118E12	781.25	25600.0	0.0	0.0	
-0.48854961832061067	-39.0	0.5954198473282443	32.0	1.6335877862595418	-107.0	0.03614457831325302	1283.0	9.204819277108435	2044.0	-0.0963855421686747	2055.0	-0.42454545454545456	467.0	-0.025454545454545455	-28.0	-0.22551020408163266	221.0	1.522892505105E12	1.522892505149E12	785.15625	25728.0	0.0	0.0	
-0.7175572519083969	-33.0	0.5038167938931297	47.0	1.6335877862595418	-107.0	0.024096385542168676	1283.0	9.204819277108435	2045.0	-0.10843373493975904	2056.0	-0.41545454545454547	457.0	-0.019090909090909092	-21.0	-0.22653061224489798	222.0	1.5228925051089063E12	1.522892505154E12	789.0625	25856.0	0.0	0.0	
-0.7633587786259541	-35.0	0.5343511450381679	50.0	1.5419847328244274	-101.0	0.04819277108433735	1284.0	9.19277108433735	2043.0	-0.0963855421686747	2055.0	-0.4209090909090909	463.0	-0.014545454545454545	-16.0	-0.22244897959183677	218.0	1.5228925051128125E12	1.522892505155E12	792.96875	25984.0	0.0	0.0	
-0.5801526717557252	-36.0	0.549618320610687	38.0	1.5877862595419847	-104.0	0.012048192771084338	1284.0	9.19277108433735	2046.0	-0.060240963855421686	2052.0	-0.4254545454545455	468.0	-0.028181818181818183	-31.0	-0.22755102040816327	223.0	1.5228925051167188E12	1.522892505156E12	796.875	26112.0	0.0	0.0	
-0.7633587786259541	-48.0	0.732824427480916	50.0	1.5419847328244274	-101.0	0.012048192771084338	1284.0	9.19277108433735	2046.0	-0.03614457831325302	2050.0	-0.41818181818181815	460.0	-0.017272727272727273	-19.0	-0.22244897959183677	218.0	1.522892505120625E12	1.522892505157E12	800.78125	26240.0	0.0	0.0	
-0.6717557251908397	-32.0	0.48854961832061067	44.0	1.7557251908396947	-115.0	0.012048192771084338	1284.0	9.19277108433735	2046.0	-0.024096385542168676	2049.0	-0.4254545454545455	468.0	-0.014545454545454545	-16.0	-0.22142857142857145	217.0	1.5228925051245313E12	1.522892505158E12	804.6875	26368.0	0.0	0.0	
-0.7175572519083969	-36.0	0.549618320610687	47.0	1.7557251908396947	-115.0	0.012048192771084338	1285.0	9.180722891566266	2046.0	-0.012048192771084338	2048.0	-0.4218181818181818	464.0	-0.00909090909090909	-10.0	-0.21938775510204084	215.0	1.5228925051284375E12	1.522892505159E12	808.59375	26496.0	0.0	0.0	
-0.7633587786259541	-25.0	0.38167938931297707	50.0	1.66412213740458	-109.0	0.0	1283.0	9.204819277108435	2047.0	0.012048192771084338	2046.0	-0.4218181818181818	464.0	-0.00909090909090909	-10.0	-0.21938775510204084	215.0	1.5228925051323438E12	1.522892505161E12	812.5	26624.0	0.0	0.0	
-0.6412213740458015	-30.0	0.4580152671755725	42.0	1.5725190839694656	-103.0	0.0	1286.0	9.168674698795181	2047.0	0.0	2047.0	-0.41545454545454547	457.0	-0.008181818181818182	-9.0	-0.22346938775510206	219.0	1.52289250513625E12	1.522892505161E12	816.40625	26752.0	0.0	0.0	
-0.7786259541984732	-12.0	0.183206106870229	51.0	1.6335877862595418	-107.0	0.0	1285.0	9.180722891566266	2047.0	0.012048192771084338	2046.0	-0.42272727272727273	465.0	-0.015454545454545455	-17.0	-0.22244897959183677	218.0	1.5228925051401563E12	1.522892505162E12	820.3125	26880.0	0.0	0.0	
-0.7175572519083969	-17.0	0.2595419847328244	47.0	1.7709923664122136	-116.0	0.024096385542168676	1285.0	9.180722891566266	2045.0	-0.012048192771084338	2048.0	-0.41818181818181815	460.0	-0.02727272727272727	-30.0	-0.2285714285714286	224.0	1.5228925051440625E12	1.522892505164E12	824.21875	27008.0	0.0	0.0	
-0.47328244274809156	-11.0	0.16793893129770993	31.0	1.8473282442748091	-121.0	0.060240963855421686	1284.0	9.19277108433735	2042.0	0.012048192771084338	2046.0	-0.41818181818181815	460.0	-0.014545454545454545	-16.0	-0.22244897959183677	218.0	1.5228925051479688E12	1.522892505165E12	828.125	27136.0	0.0	0.0	
-0.3969465648854962	-25.0	0.38167938931297707	26.0	1.5877862595419847	-104.0	0.060240963855421686	1286.0	9.168674698795181	2042.0	-0.024096385542168676	2049.0	-0.42363636363636364	466.0	-0.016363636363636365	-18.0	-0.21938775510204084	215.0	1.522892505151875E12	1.522892505165E12	832.03125	27264.0	0.0	0.0	
-0.6412213740458015	-16.0	0.24427480916030533	42.0	1.5725190839694656	-103.0	0.07228915662650603	1285.0	9.180722891566266	2041.0	-0.03614457831325302	2050.0	-0.42	462.0	-0.025454545454545455	-28.0	-0.22755102040816327	223.0	1.5228925051557813E12	1.522892505167E12	835.9375	27392.0	0.0	0.0	
-0.6564885496183206	-18.0	0.2748091603053435	43.0	1.6030534351145038	-105.0	0.14457831325301207	1286.0	9.168674698795181	2035.0	-0.03614457831325302	2050.0	-0.42	462.0	-0.025454545454545455	-28.0	-0.22755102040816327	223.0	1.5228925051596875E12	1.522892505168E12	839.84375	27520.0	0.0	0.0	
-0.9007633587786259	-20.0	0.3053435114503817	59.0	1.7557251908396947	-115.0	0.20481927710843376	1285.0	9.180722891566266	2030.0	-0.07228915662650603	2053.0	-0.4209090909090909	463.0	-0.01818181818181818	-20.0	-0.22653061224489798	222.0	1.5228925051635938E12	1.522892505169E12	843.75	27648.0	0.0	0.0	
-0.8244274809160305	-20.0	0.3053435114503817	54.0	1.6946564885496183	-111.0	0.21686746987951808	1283.0	9.204819277108435	2029.0	-0.10843373493975904	2056.0	-0.4127272727272727	454.0	-0.02090909090909091	-23.0	-0.22653061224489798	222.0	1.5228925051675E12	1.522892505179E12	847.65625	27776.0	0.0	0.0	
-0.564885496183206	-43.0	0.6564885496183206	37.0	1.6335877862595418	-107.0	0.24096385542168675	1283.0	9.204819277108435	2027.0	-0.13253012048192772	2058.0	-0.42	462.0	-0.007272727272727273	-8.0	-0.22142857142857145	217.0	1.5228925051714063E12	1.52289250518E12	851.5625	27904.0	0.0	0.0	
-0.5954198473282443	-29.0	0.4427480916030534	39.0	1.5572519083969465	-102.0	0.20481927710843376	1283.0	9.204819277108435	2030.0	-0.13253012048192772	2058.0	-0.4209090909090909	463.0	-0.016363636363636365	-18.0	-0.22755102040816327	223.0	1.5228925051753125E12	1.522892505181E12	855.46875	28032.0	0.0	0.0	
-0.7175572519083969	-34.0	0.5190839694656488	47.0	1.4961832061068703	-98.0	0.16867469879518074	1282.0	9.216867469879519	2033.0	-0.1566265060240964	2060.0	-0.41545454545454547	457.0	-9.090909090909091E-4	-1.0	-0.22755102040816327	223.0	1.5228925051792188E12	1.522892505192E12	859.375	28160.0	0.0	0.0	
-0.8091603053435115	-38.0	0.5801526717557252	53.0	1.4809160305343512	-97.0	0.1566265060240964	1284.0	9.19277108433735	2034.0	-0.1566265060240964	2060.0	-0.4209090909090909	463.0	-0.024545454545454544	-27.0	-0.2285714285714286	224.0	1.522892505183125E12	1.522892505193E12	863.28125	28288.0	0.0	0.0	
-0.7938931297709924	-42.0	0.6412213740458015	52.0	1.3893129770992365	-91.0	0.16867469879518074	1283.0	9.204819277108435	2033.0	-0.1566265060240964	2060.0	-0.4209090909090909	463.0	-0.024545454545454544	-27.0	-0.2285714285714286	224.0	1.5228925051870313E12	1.522892505194E12	867.1875	28416.0	0.0	0.0	
-0.7786259541984732	-45.0	0.6870229007633587	51.0	1.5572519083969465	-102.0	0.20481927710843376	1284.0	9.19277108433735	2030.0	-0.1566265060240964	2060.0	-0.41818181818181815	460.0	-0.014545454545454545	-16.0	-0.22755102040816327	223.0	1.5228925051909375E12	1.522892505201E12	871.09375	28544.0	0.0	0.0	
-0.8244274809160305	-31.0	0.47328244274809156	54.0	1.282442748091603	-84.0	0.24096385542168675	1283.0	9.204819277108435	2027.0	-0.13253012048192772	2058.0	-0.41545454545454547	457.0	-0.02727272727272727	-30.0	-0.22755102040816327	223.0	1.5228925051948438E12	1.522892505202E12	875.0	28672.0	0.0	0.0	
-1.129770992366412	-54.0	0.8244274809160305	74.0	1.5572519083969465	-102.0	0.21686746987951808	1284.0	9.19277108433735	2029.0	-0.12048192771084337	2057.0	-0.4254545454545455	468.0	-0.02727272727272727	-30.0	-0.22755102040816327	223.0	1.52289250519875E12	1.522892505203E12	878.90625	28800.0	0.0	0.0	
-1.0687022900763359	-47.0	0.7175572519083969	70.0	1.2519083969465647	-82.0	0.14457831325301207	1283.0	9.204819277108435	2035.0	-0.12048192771084337	2057.0	-0.4209090909090909	463.0	-0.01090909090909091	-12.0	-0.2285714285714286	224.0	1.5228925052026563E12	1.522892505216E12	882.8125	28928.0	0.0	0.0	
-0.9618320610687022	-54.0	0.8244274809160305	63.0	1.3587786259541985	-89.0	0.10843373493975904	1283.0	9.204819277108435	2038.0	-0.0963855421686747	2055.0	-0.41909090909090907	461.0	-0.01818181818181818	-20.0	-0.22244897959183677	218.0	1.5228925052065625E12	1.522892505217E12	886.71875	29056.0	0.0	0.0	
-1.0381679389312977	-54.0	0.8244274809160305	68.0	1.297709923664122	-85.0	0.060240963855421686	1284.0	9.19277108433735	2042.0	-0.060240963855421686	2052.0	-0.42454545454545456	467.0	-0.02727272727272727	-30.0	-0.22653061224489798	222.0	1.5228925052104688E12	1.522892505218E12	890.625	29184.0	0.0	0.0	
-0.9007633587786259	-48.0	0.732824427480916	59.0	1.1603053435114503	-76.0	0.060240963855421686	1283.0	9.204819277108435	2042.0	-0.03614457831325302	2050.0	-0.42454545454545456	467.0	-0.02727272727272727	-30.0	-0.22653061224489798	222.0	1.522892505214375E12	1.522892505231E12	894.53125	29312.0	0.0	0.0	
-1.2366412213740459	-49.0	0.7480916030534351	81.0	1.2671755725190839	-83.0	0.03614457831325302	1284.0	9.19277108433735	2044.0	-0.03614457831325302	2050.0	-0.41818181818181815	460.0	-0.01090909090909091	-12.0	-0.22653061224489798	222.0	1.5228925052182813E12	1.522892505232E12	898.4375	29440.0	0.0	0.0	
-1.1603053435114503	-56.0	0.8549618320610687	76.0	1.3893129770992365	-91.0	0.024096385542168676	1284.0	9.19277108433735	2045.0	0.0	2047.0	-0.42272727272727273	465.0	-0.023636363636363636	-26.0	-0.22448979591836737	220.0	1.5228925052221875E12	1.522892505232E12	902.34375	29568.0	0.0	0.0	
-0.9923664122137404	-39.0	0.5954198473282443	65.0	1.3435114503816794	-88.0	0.060240963855421686	1284.0	9.19277108433735	2042.0	0.0	2047.0	-0.4218181818181818	464.0	-0.02727272727272727	-30.0	-0.22551020408163266	221.0	1.5228925052260938E12	1.522892505234E12	906.25	29696.0	0.0	0.0	
-1.0687022900763359	-44.0	0.6717557251908397	70.0	1.282442748091603	-84.0	0.04819277108433735	1285.0	9.180722891566266	2043.0	-0.012048192771084338	2048.0	-0.4254545454545455	468.0	-0.014545454545454545	-16.0	-0.2285714285714286	224.0	1.52289250523E12	1.522892505235E12	910.15625	29824.0	0.0	0.0	
-0.9618320610687022	-47.0	0.7175572519083969	63.0	1.2061068702290076	-79.0	0.012048192771084338	1284.0	9.19277108433735	2046.0	0.024096385542168676	2045.0	-0.4218181818181818	464.0	-0.026363636363636363	-29.0	-0.22448979591836737	220.0	1.5228925052339063E12	1.522892505236E12	914.0625	29952.0	0.0	0.0	
-0.9312977099236641	-51.0	0.7786259541984732	61.0	1.3893129770992365	-91.0	-0.024096385542168676	1284.0	9.19277108433735	2049.0	0.03614457831325302	2044.0	-0.4218181818181818	464.0	-0.024545454545454544	-27.0	-0.22448979591836737	220.0	1.5228925052378125E12	1.522892505248E12	917.96875	30080.0	0.0	0.0	
-1.0687022900763359	-49.0	0.7480916030534351	70.0	1.2213740458015268	-80.0	-0.04819277108433735	1283.0	9.204819277108435	2051.0	0.04819277108433735	2043.0	-0.4209090909090909	463.0	-0.024545454545454544	-27.0	-0.22653061224489798	222.0	1.5228925052417188E12	1.522892505249E12	921.875	30208.0	0.0	0.0	
-1.0534351145038168	-41.0	0.6259541984732824	69.0	1.2213740458015268	-80.0	-0.0963855421686747	1285.0	9.180722891566266	2055.0	0.04819277108433735	2043.0	-0.41	451.0	-0.024545454545454544	-27.0	-0.22653061224489798	222.0	1.522892505245625E12	1.52289250525E12	925.78125	30336.0	0.0	0.0	
-0.9770992366412213	-43.0	0.6564885496183206	64.0	1.2213740458015268	-80.0	-0.07228915662650603	1284.0	9.19277108433735	2053.0	0.04819277108433735	2043.0	-0.4163636363636364	458.0	-0.00909090909090909	-10.0	-0.2326530612244898	228.0	1.5228925052495313E12	1.522892505263E12	929.6875	30464.0	0.0	0.0	
-0.9007633587786259	-19.0	0.2900763358778626	59.0	1.5419847328244274	-101.0	-0.012048192771084338	1285.0	9.180722891566266	2048.0	0.03614457831325302	2044.0	-0.4163636363636364	458.0	-0.025454545454545455	-28.0	-0.2285714285714286	224.0	1.5228925052534375E12	1.522892505264E12	933.59375	30592.0	0.0	0.0	
-0.916030534351145	-26.0	0.3969465648854962	60.0	1.450381679389313	-95.0	0.08433734939759037	1285.0	9.180722891566266	2040.0	0.012048192771084338	2046.0	-0.41818181818181815	460.0	-0.013636363636363636	-15.0	-0.2285714285714286	224.0	1.5228925052573438E12	1.522892505265E12	937.5	30720.0	0.0	0.0	
-1.1450381679389312	-35.0	0.5343511450381679	75.0	1.4351145038167938	-94.0	0.0963855421686747	1285.0	9.180722891566266	2039.0	-0.024096385542168676	2049.0	-0.42	462.0	-0.005454545454545455	-6.0	-0.21734693877551023	213.0	1.52289250526125E12	1.522892505302E12	941.40625	30848.0	0.0	0.0	
-0.9923664122137404	-38.0	0.5801526717557252	65.0	1.4809160305343512	-97.0	0.0963855421686747	1283.0	9.204819277108435	2039.0	-0.07228915662650603	2053.0	-0.42	462.0	-0.005454545454545455	-6.0	-0.21734693877551023	213.0	1.5228925052651563E12	1.522892505303E12	945.3125	30976.0	0.0	0.0	
-1.1450381679389312	-44.0	0.6717557251908397	75.0	1.3435114503816794	-88.0	0.03614457831325302	1283.0	9.204819277108435	2044.0	-0.07228915662650603	2053.0	-0.41909090909090907	461.0	-0.028181818181818183	-31.0	-0.22551020408163266	221.0	1.5228925052690625E12	1.522892505304E12	949.21875	31104.0	0.0	0.0	
-0.9618320610687022	-38.0	0.5801526717557252	63.0	1.5114503816793892	-99.0	0.012048192771084338	1283.0	9.204819277108435	2046.0	-0.04819277108433735	2051.0	-0.42	462.0	-0.011818181818181818	-13.0	-0.22653061224489798	222.0	1.5228925052729688E12	1.522892505305E12	953.125	31232.0	0.0	0.0	
-1.1450381679389312	-35.0	0.5343511450381679	75.0	1.450381679389313	-95.0	0.0	1283.0	9.204819277108435	2047.0	-0.07228915662650603	2053.0	-0.42	462.0	-0.01	-11.0	-0.21734693877551023	213.0	1.522892505276875E12	1.522892505306E12	957.03125	31360.0	0.0	0.0	
-0.8702290076335878	-39.0	0.5954198473282443	57.0	1.4045801526717556	-92.0	0.03614457831325302	1284.0	9.19277108433735	2044.0	-0.04819277108433735	2051.0	-0.41545454545454547	457.0	-0.011818181818181818	-13.0	-0.22040816326530616	216.0	1.5228925052807813E12	1.522892505307E12	960.9375	31488.0	0.0	0.0	
-1.114503816793893	-37.0	0.564885496183206	73.0	1.5419847328244274	-101.0	0.0963855421686747	1283.0	9.204819277108435	2039.0	-0.060240963855421686	2052.0	-0.42363636363636364	466.0	-0.015454545454545455	-17.0	-0.22346938775510206	219.0	1.5228925052846875E12	1.522892505308E12	964.84375	31616.0	0.0	0.0	
-1.1603053435114503	-28.0	0.42748091603053434	76.0	1.4351145038167938	-94.0	0.13253012048192772	1283.0	9.204819277108435	2036.0	-0.04819277108433735	2051.0	-0.4263636363636364	469.0	-0.028181818181818183	-31.0	-0.22551020408163266	221.0	1.5228925052885938E12	1.52289250531E12	968.75	31744.0	0.0	0.0	
-1.0076335877862594	-59.0	0.9007633587786259	66.0	1.465648854961832	-96.0	0.10843373493975904	1283.0	9.204819277108435	2038.0	-0.07228915662650603	2053.0	-0.4263636363636364	469.0	-0.028181818181818183	-31.0	-0.22551020408163266	221.0	1.5228925052925E12	1.522892505311E12	972.65625	31872.0	0.0	0.0	
-1.0687022900763359	-30.0	0.4580152671755725	70.0	1.2671755725190839	-83.0	0.07228915662650603	1283.0	9.204819277108435	2041.0	-0.08433734939759037	2054.0	-0.4209090909090909	463.0	-0.02727272727272727	-30.0	-0.22755102040816327	223.0	1.5228925052964063E12	1.522892505311E12	976.5625	32000.0	0.0	0.0	
-1.0534351145038168	-34.0	0.5190839694656488	69.0	1.4809160305343512	-97.0	0.07228915662650603	1283.0	9.204819277108435	2041.0	-0.08433734939759037	2054.0	-0.4209090909090909	463.0	-0.011818181818181818	-13.0	-0.22142857142857145	217.0	1.5228925053003125E12	1.522892505313E12	980.46875	32128.0	0.0	0.0	
-1.2061068702290076	-38.0	0.5801526717557252	79.0	1.4045801526717556	-92.0	0.024096385542168676	1283.0	9.204819277108435	2045.0	-0.07228915662650603	2053.0	-0.42363636363636364	466.0	-0.024545454545454544	-27.0	-0.22244897959183677	218.0	1.5228925053042188E12	1.522892505314E12	984.375	32256.0	0.0	0.0	
-1.0229007633587786	-46.0	0.7022900763358778	67.0	1.4961832061068703	-98.0	0.012048192771084338	1283.0	9.204819277108435	2046.0	-0.03614457831325302	2050.0	-0.41818181818181815	460.0	-0.026363636363636363	-29.0	-0.22653061224489798	222.0	1.522892505308125E12	1.522892505314E12	988.28125	32384.0	0.0	0.0	
-1.1450381679389312	-40.0	0.6106870229007634	75.0	1.3282442748091603	-87.0	0.012048192771084338	1283.0	9.204819277108435	2046.0	0.0	2047.0	-0.42454545454545456	467.0	-0.016363636363636365	-18.0	-0.22346938775510206	219.0	1.5228925053120313E12	1.522892505329E12	992.1875	32512.0	0.0	0.0	
-1.2213740458015268	-37.0	0.564885496183206	80.0	1.4961832061068703	-98.0	0.012048192771084338	1284.0	9.19277108433735	2046.0	0.0	2047.0	-0.41909090909090907	461.0	-0.00909090909090909	-10.0	-0.21734693877551023	213.0	1.5228925053159375E12	1.52289250533E12	996.09375	32640.0	0.0	0.0	
-1.1603053435114503	-48.0	0.732824427480916	76.0	1.3740458015267174	-90.0	0.024096385542168676	1282.0	9.216867469879519	2045.0	0.012048192771084338	2046.0	-0.41909090909090907	461.0	-0.00909090909090909	-10.0	-0.21734693877551023	213.0	1.5228925053198438E12	1.522892505331E12	1000.0	32768.0	0.0	0.0	
-0.9770992366412213	-42.0	0.6412213740458015	64.0	1.297709923664122	-85.0	0.012048192771084338	1285.0	9.180722891566266	2046.0	0.0	2047.0	-0.4172727272727273	459.0	-0.022727272727272728	-25.0	-0.22551020408163266	221.0	1.52289250532375E12	1.522892505332E12	1003.90625	32896.0	0.0	0.0	
-0.9312977099236641	-50.0	0.7633587786259541	61.0	1.4809160305343512	-97.0	0.0	1284.0	9.19277108433735	2047.0	0.012048192771084338	2046.0	-0.4209090909090909	463.0	-0.017272727272727273	-19.0	-0.22551020408163266	221.0	1.5228925053276563E12	1.522892505333E12	1007.8125	33024.0	0.0	0.0	
-1.099236641221374	-55.0	0.8396946564885496	72.0	1.4045801526717556	-92.0	-0.012048192771084338	1284.0	9.19277108433735	2048.0	0.0	2047.0	-0.42363636363636364	466.0	-0.026363636363636363	-29.0	-0.2285714285714286	224.0	1.5228925053315625E12	1.522892505334E12	1011.71875	33152.0	0.0	0.0	
-1.2213740458015268	-46.0	0.7022900763358778	80.0	1.4961832061068703	-98.0	-0.060240963855421686	1282.0	9.216867469879519	2052.0	0.024096385542168676	2045.0	-0.41909090909090907	461.0	-0.023636363636363636	-26.0	-0.2306122448979592	226.0	1.5228925053354688E12	1.522892505347E12	1015.625	33280.0	0.0	0.0	
-1.114503816793893	-47.0	0.7175572519083969	73.0	1.3893129770992365	-91.0	-0.13253012048192772	1285.0	9.180722891566266	2058.0	0.060240963855421686	2042.0	-0.4218181818181818	464.0	-0.015454545454545455	-17.0	-0.22653061224489798	222.0	1.522892505339375E12	1.522892505349E12	1019.53125	33408.0	0.0	0.0	
-1.1603053435114503	-41.0	0.6259541984732824	76.0	1.5725190839694656	-103.0	-0.18072289156626506	1284.0	9.19277108433735	2062.0	0.07228915662650603	2041.0	-0.4172727272727273	459.0	-0.015454545454545455	-17.0	-0.22346938775510206	219.0	1.5228925053432813E12	1.52289250535E12	1023.4375	33536.0	0.0	0.0	
-1.2671755725190839	-45.0	0.6870229007633587	83.0	1.66412213740458	-109.0	-0.13253012048192772	1285.0	9.180722891566266	2058.0	0.060240963855421686	2042.0	-0.4172727272727273	459.0	-0.015454545454545455	-17.0	-0.22346938775510206	219.0	1.5228925053471875E12	1.522892505358E12	1027.34375	33664.0	0.0	0.0	
-0.9770992366412213	-40.0	0.6106870229007634	64.0	1.8931297709923662	-124.0	-0.03614457831325302	1286.0	9.168674698795181	2050.0	0.04819277108433735	2043.0	-0.41454545454545455	456.0	-0.019090909090909092	-21.0	-0.2306122448979592	226.0	1.5228925053510938E12	1.52289250536E12	1031.25	33792.0	0.0	0.0	
-0.9770992366412213	-13.0	0.1984732824427481	64.0	1.8015267175572518	-118.0	0.07228915662650603	1286.0	9.168674698795181	2041.0	0.024096385542168676	2045.0	-0.42454545454545456	467.0	-0.016363636363636365	-18.0	-0.22653061224489798	222.0	1.522892505355E12	1.522892505369E12	1035.15625	33920.0	0.0	0.0	
-1.129770992366412	-10.0	0.15267175572519084	74.0	1.6793893129770991	-110.0	0.16867469879518074	1286.0	9.168674698795181	2033.0	0.03614457831325302	2044.0	-0.4218181818181818	464.0	-0.028181818181818183	-31.0	-0.2295918367346939	225.0	1.5228925053589063E12	1.522892505374E12	1039.0625	34048.0	0.0	0.0	
-1.083969465648855	-26.0	0.3969465648854962	71.0	1.5725190839694656	-103.0	0.1566265060240964	1285.0	9.180722891566266	2034.0	0.0	2047.0	-0.4163636363636364	458.0	-0.013636363636363636	-15.0	-0.22448979591836737	220.0	1.5228925053628125E12	1.522892505375E12	1042.96875	34176.0	0.0	0.0	
-1.099236641221374	-30.0	0.4580152671755725	72.0	1.4961832061068703	-98.0	0.0963855421686747	1285.0	9.180722891566266	2039.0	-0.024096385542168676	2049.0	-0.42363636363636364	466.0	-0.017272727272727273	-19.0	-0.22040816326530616	216.0	1.5228925053667188E12	1.522892505376E12	1046.875	34304.0	0.0	0.0	
-1.1755725190839694	-41.0	0.6259541984732824	77.0	1.4961832061068703	-98.0	0.04819277108433735	1283.0	9.204819277108435	2043.0	-0.024096385542168676	2049.0	-0.41818181818181815	460.0	-0.00909090909090909	-10.0	-0.22244897959183677	218.0	1.522892505370625E12	1.522892505386E12	1050.78125	34432.0	0.0	0.0	
-1.3435114503816794	-23.0	0.3511450381679389	88.0	1.5419847328244274	-101.0	0.07228915662650603	1282.0	9.216867469879519	2041.0	0.012048192771084338	2046.0	-0.41818181818181815	460.0	-0.00909090909090909	-10.0	-0.22244897959183677	218.0	1.5228925053745313E12	1.522892505387E12	1054.6875	34560.0	0.0	0.0	
-1.4198473282442747	-30.0	0.4580152671755725	93.0	1.5572519083969465	-102.0	0.12048192771084337	1284.0	9.19277108433735	2037.0	0.0	2047.0	-0.4163636363636364	458.0	-0.015454545454545455	-17.0	-0.22551020408163266	221.0	1.5228925053784375E12	1.522892505388E12	1058.59375	34688.0	0.0	0.0	
-1.083969465648855	-33.0	0.5038167938931297	71.0	1.648854961832061	-108.0	0.1566265060240964	1283.0	9.204819277108435	2034.0	0.024096385542168676	2045.0	-0.42363636363636364	466.0	-0.022727272727272728	-25.0	-0.22244897959183677	218.0	1.5228925053823438E12	1.52289250539E12	1062.5	34816.0	0.0	0.0	
-1.0534351145038168	-35.0	0.5343511450381679	69.0	1.6793893129770991	-110.0	0.18072289156626506	1283.0	9.204819277108435	2032.0	-0.024096385542168676	2049.0	-0.4163636363636364	458.0	-0.02	-22.0	-0.22346938775510206	219.0	1.52289250538625E12	1.522892505391E12	1066.40625	34944.0	0.0	0.0	
-1.0076335877862594	-38.0	0.5801526717557252	66.0	1.5114503816793892	-99.0	0.1927710843373494	1283.0	9.204819277108435	2031.0	-0.04819277108433735	2051.0	-0.4209090909090909	463.0	-0.01090909090909091	-12.0	-0.22653061224489798	222.0	1.5228925053901563E12	1.522892505392E12	1070.3125	35072.0	0.0	0.0	
-1.0076335877862594	-46.0	0.7022900763358778	66.0	1.3587786259541985	-89.0	0.16867469879518074	1284.0	9.19277108433735	2033.0	-0.07228915662650603	2053.0	-0.42363636363636364	466.0	-0.02	-22.0	-0.22448979591836737	220.0	1.5228925053940625E12	1.522892505405E12	1074.21875	35200.0	0.0	0.0	
-1.3587786259541985	-44.0	0.6717557251908397	89.0	1.3587786259541985	-89.0	0.13253012048192772	1284.0	9.19277108433735	2036.0	-0.07228915662650603	2053.0	-0.4209090909090909	463.0	-0.01	-11.0	-0.22040816326530616	216.0	1.5228925053979688E12	1.522892505405E12	1078.125	35328.0	0.0	0.0	
-1.3435114503816794	-49.0	0.7480916030534351	88.0	1.1603053435114503	-76.0	0.08433734939759037	1283.0	9.204819277108435	2040.0	-0.03614457831325302	2050.0	-0.4209090909090909	463.0	-0.01	-11.0	-0.22040816326530616	216.0	1.522892505401875E12	1.522892505406E12	1082.03125	35456.0	0.0	0.0	
-1.114503816793893	-50.0	0.7633587786259541	73.0	1.4045801526717556	-92.0	0.04819277108433735	1282.0	9.216867469879519	2043.0	-0.012048192771084338	2048.0	-0.42363636363636364	466.0	-0.017272727272727273	-19.0	-0.2285714285714286	224.0	1.5228925054057813E12	1.522892505417E12	1085.9375	35584.0	0.0	0.0	
-1.1450381679389312	-44.0	0.6717557251908397	75.0	1.297709923664122	-85.0	0.03614457831325302	1283.0	9.204819277108435	2044.0	0.012048192771084338	2046.0	-0.42363636363636364	466.0	-0.023636363636363636	-26.0	-0.22244897959183677	218.0	1.5228925054096875E12	1.522892505418E12	1089.84375	35712.0	0.0	0.0	
-1.0534351145038168	-48.0	0.732824427480916	69.0	1.3893129770992365	-91.0	0.012048192771084338	1283.0	9.204819277108435	2046.0	0.012048192771084338	2046.0	-0.42	462.0	-0.015454545454545455	-17.0	-0.22448979591836737	220.0	1.5228925054135938E12	1.52289250542E12	1093.75	35840.0	0.0	0.0	
-0.8702290076335878	-45.0	0.6870229007633587	57.0	1.3282442748091603	-87.0	0.0	1285.0	9.180722891566266	2047.0	0.0	2047.0	-0.4127272727272727	454.0	-0.02	-22.0	-0.22755102040816327	223.0	1.5228925054175E12	1.522892505454E12	1097.65625	35968.0	0.0	0.0	
-0.9923664122137404	-39.0	0.5954198473282443	65.0	1.4045801526717556	-92.0	0.0	1285.0	9.180722891566266	2047.0	-0.012048192771084338	2048.0	-0.4209090909090909	463.0	-0.02727272727272727	-30.0	-0.22551020408163266	221.0	1.5228925054214063E12	1.522892505455E12	1101.5625	36096.0	0.0	0.0	
-1.099236641221374	-41.0	0.6259541984732824	72.0	1.465648854961832	-96.0	0.060240963855421686	1284.0	9.19277108433735	2042.0	-0.03614457831325302	2050.0	-0.4209090909090909	463.0	-0.026363636363636363	-29.0	-0.22551020408163266	221.0	1.5228925054253125E12	1.522892505456E12	1105.46875	36224.0	0.0	0.0	
-1.2213740458015268	-38.0	0.5801526717557252	80.0	1.450381679389313	-95.0	0.0963855421686747	1284.0	9.19277108433735	2039.0	-0.012048192771084338	2048.0	-0.4209090909090909	463.0	-0.026363636363636363	-29.0	-0.2285714285714286	224.0	1.5228925054292188E12	1.522892505458E12	1109.375	36352.0	0.0	0.0	
-1.297709923664122	-50.0	0.7633587786259541	85.0	1.3740458015267174	-90.0	0.08433734939759037	1285.0	9.180722891566266	2040.0	0.0	2047.0	-0.42363636363636364	466.0	-0.019090909090909092	-21.0	-0.2285714285714286	224.0	1.522892505433125E12	1.522892505459E12	1113.28125	36480.0	0.0	0.0	
-1.1908396946564885	-42.0	0.6412213740458015	78.0	1.3893129770992365	-91.0	0.04819277108433735	1285.0	9.180722891566266	2043.0	0.03614457831325302	2044.0	-0.42454545454545456	467.0	-0.026363636363636363	-29.0	-0.22448979591836737	220.0	1.5228925054370313E12	1.52289250546E12	1117.1875	36608.0	0.0	0.0	
-1.1755725190839694	-47.0	0.7175572519083969	77.0	1.297709923664122	-85.0	0.0	1284.0	9.19277108433735	2047.0	0.04819277108433735	2043.0	-0.4172727272727273	459.0	-0.016363636363636365	-18.0	-0.2295918367346939	225.0	1.5228925054409375E12	1.522892505461E12	1121.09375	36736.0	0.0	0.0	
-1.2213740458015268	-48.0	0.732824427480916	80.0	1.282442748091603	-84.0	-0.024096385542168676	1284.0	9.19277108433735	2049.0	0.04819277108433735	2043.0	-0.4209090909090909	463.0	-0.011818181818181818	-13.0	-0.22448979591836737	220.0	1.5228925054448438E12	1.522892505462E12	1125.0	36864.0	0.0	0.0	
-1.099236641221374	-43.0	0.6564885496183206	72.0	1.297709923664122	-85.0	-0.03614457831325302	1285.0	9.180722891566266	2050.0	0.012048192771084338	2046.0	-0.42454545454545456	467.0	-0.02909090909090909	-32.0	-0.22755102040816327	223.0	1.52289250544875E12	1.522892505463E12	1128.90625	36992.0	0.0	0.0	
-1.0229007633587786	-44.0	0.6717557251908397	67.0	1.4045801526717556	-92.0	0.0	1286.0	9.168674698795181	2047.0	0.0	2047.0	-0.42454545454545456	467.0	-0.02909090909090909	-32.0	-0.22755102040816327	223.0	1.5228925054526563E12	1.522892505463E12	1132.8125	37120.0	0.0	0.0	
-1.114503816793893	-28.0	0.42748091603053434	73.0	1.7557251908396947	-115.0	0.012048192771084338	1285.0	9.180722891566266	2046.0	-0.024096385542168676	2049.0	-0.41363636363636364	455.0	-0.016363636363636365	-18.0	-0.2285714285714286	224.0	1.5228925054565625E12	1.522892505464E12	1136.71875	37248.0	0.0	0.0	
-1.282442748091603	-32.0	0.48854961832061067	84.0	1.4198473282442747	-93.0	0.04819277108433735	1286.0	9.168674698795181	2043.0	-0.024096385542168676	2049.0	-0.42272727272727273	465.0	-0.01818181818181818	-20.0	-0.22448979591836737	220.0	1.5228925054604688E12	1.522892505465E12	1140.625	37376.0	0.0	0.0	
-1.3129770992366412	-40.0	0.6106870229007634	86.0	1.5572519083969465	-102.0	0.060240963855421686	1284.0	9.19277108433735	2042.0	-0.012048192771084338	2048.0	-0.4218181818181818	464.0	-0.026363636363636363	-29.0	-0.22346938775510206	219.0	1.522892505464375E12	1.522892505476E12	1144.53125	37504.0	0.0	0.0	
-1.2366412213740459	-44.0	0.6717557251908397	81.0	1.5572519083969465	-102.0	0.060240963855421686	1284.0	9.19277108433735	2042.0	0.0	2047.0	-0.42	462.0	-0.026363636363636363	-29.0	-0.2295918367346939	225.0	1.5228925054682813E12	1.522892505477E12	1148.4375	37632.0	0.0	0.0	
-1.2671755725190839	-35.0	0.5343511450381679	83.0	1.3740458015267174	-90.0	0.07228915662650603	1285.0	9.180722891566266	2041.0	-0.03614457831325302	2050.0	-0.4218181818181818	464.0	-0.01090909090909091	-12.0	-0.22346938775510206	219.0	1.5228925054721875E12	1.522892505478E12	1152.34375	37760.0	0.0	0.0	
-1.2366412213740459	-24.0	0.366412213740458	81.0	1.4809160305343512	-97.0	0.10843373493975904	1285.0	9.180722891566266	2038.0	-0.012048192771084338	2048.0	-0.4218181818181818	464.0	-0.023636363636363636	-26.0	-0.22346938775510206	219.0	1.5228925054760938E12	1.522892505497E12	1156.25	37888.0	0.0	0.0	
-1.282442748091603	-14.0	0.21374045801526717	84.0	1.3893129770992365	-91.0	0.13253012048192772	1283.0	9.204819277108435	2036.0	-0.024096385542168676	2049.0	-0.4218181818181818	464.0	-0.023636363636363636	-26.0	-0.22346938775510206	219.0	1.52289250548E12	1.522892505498E12	1160.15625	38016.0	0.0	0.0	
-1.1908396946564885	-31.0	0.47328244274809156	78.0	1.5419847328244274	-101.0	0.16867469879518074	1283.0	9.204819277108435	2033.0	-0.060240963855421686	2052.0	-0.41545454545454547	457.0	-0.01818181818181818	-20.0	-0.2285714285714286	224.0	1.5228925054839063E12	1.522892505499E12	1164.0625	38144.0	0.0	0.0	
-1.1755725190839694	-44.0	0.6717557251908397	77.0	1.465648854961832	-96.0	0.21686746987951808	1283.0	9.204819277108435	2029.0	-0.060240963855421686	2052.0	-0.4218181818181818	464.0	-0.011818181818181818	-13.0	-0.22755102040816327	223.0	1.5228925054878125E12	1.522892505502E12	1167.96875	38272.0	0.0	0.0	
-1.1603053435114503	-44.0	0.6717557251908397	76.0	1.3435114503816794	-88.0	0.18072289156626506	1282.0	9.216867469879519	2032.0	-0.07228915662650603	2053.0	-0.4172727272727273	459.0	-0.007272727272727273	-8.0	-0.21836734693877552	214.0	1.5228925054917188E12	1.522892505503E12	1171.875	38400.0	0.0	0.0	
-1.2061068702290076	-62.0	0.9465648854961831	79.0	1.297709923664122	-85.0	0.14457831325301207	1284.0	9.19277108433735	2035.0	-0.07228915662650603	2053.0	-0.41545454545454547	457.0	-0.02181818181818182	-24.0	-0.23163265306122452	227.0	1.522892505495625E12	1.522892505503E12	1175.78125	38528.0	0.0	0.0	
-1.3129770992366412	-55.0	0.8396946564885496	86.0	1.3740458015267174	-90.0	0.10843373493975904	1283.0	9.204819277108435	2038.0	-0.060240963855421686	2052.0	-0.42272727272727273	465.0	-0.01818181818181818	-20.0	-0.22142857142857145	217.0	1.5228925054995313E12	1.522892505511E12	1179.6875	38656.0	0.0	0.0	
-1.5572519083969465	-59.0	0.9007633587786259	102.0	1.282442748091603	-84.0	0.08433734939759037	1283.0	9.204819277108435	2040.0	-0.024096385542168676	2049.0	-0.42272727272727273	465.0	-0.02727272727272727	-30.0	-0.22653061224489798	222.0	1.5228925055034375E12	1.522892505511E12	1183.59375	38784.0	0.0	0.0	
-1.4045801526717556	-51.0	0.7786259541984732	92.0	1.2671755725190839	-83.0	0.07228915662650603	1283.0	9.204819277108435	2041.0	-0.012048192771084338	2048.0	-0.42272727272727273	465.0	-0.02727272727272727	-30.0	-0.22653061224489798	222.0	1.5228925055073438E12	1.522892505512E12	1187.5	38912.0	0.0	0.0	
-1.3435114503816794	-36.0	0.549618320610687	88.0	1.4351145038167938	-94.0	0.10843373493975904	1284.0	9.19277108433735	2038.0	0.0	2047.0	-0.4172727272727273	459.0	-0.025454545454545455	-28.0	-0.22448979591836737	220.0	1.52289250551125E12	1.522892505523E12	1191.40625	39040.0	0.0	0.0	
-1.2366412213740459	-58.0	0.8854961832061068	81.0	1.465648854961832	-96.0	0.08433734939759037	1285.0	9.180722891566266	2040.0	0.0	2047.0	-0.41454545454545455	456.0	-0.008181818181818182	-9.0	-0.22448979591836737	220.0	1.5228925055151563E12	1.522892505524E12	1195.3125	39168.0	0.0	0.0	
-1.1755725190839694	-58.0	0.8854961832061068	77.0	1.282442748091603	-84.0	0.04819277108433735	1283.0	9.204819277108435	2043.0	0.024096385542168676	2045.0	-0.42	462.0	-0.022727272727272728	-25.0	-0.2295918367346939	225.0	1.5228925055190625E12	1.522892505525E12	1199.21875	39296.0	0.0	0.0	
-1.4198473282442747	-49.0	0.7480916030534351	93.0	1.297709923664122	-85.0	0.03614457831325302	1284.0	9.19277108433735	2044.0	0.0	2047.0	-0.41818181818181815	460.0	-0.023636363636363636	-26.0	-0.22755102040816327	223.0	1.5228925055229688E12	1.522892505536E12	1203.125	39424.0	0.0	0.0	
-1.2519083969465647	-49.0	0.7480916030534351	82.0	1.114503816793893	-73.0	0.0	1284.0	9.19277108433735	2047.0	0.024096385542168676	2045.0	-0.42272727272727273	465.0	-0.016363636363636365	-18.0	-0.22346938775510206	219.0	1.522892505526875E12	1.522892505536E12	1207.03125	39552.0	0.0	0.0	
-1.4045801526717556	-40.0	0.6106870229007634	92.0	1.3435114503816794	-88.0	0.0	1285.0	9.180722891566266	2047.0	0.03614457831325302	2044.0	-0.4218181818181818	464.0	-0.02	-22.0	-0.2306122448979592	226.0	1.5228925055307813E12	1.522892505537E12	1210.9375	39680.0	0.0	0.0	
-1.450381679389313	-52.0	0.7938931297709924	95.0	1.4045801526717556	-92.0	-0.04819277108433735	1286.0	9.168674698795181	2051.0	0.060240963855421686	2042.0	-0.4218181818181818	464.0	-0.02	-22.0	-0.2306122448979592	226.0	1.5228925055346875E12	1.522892505551E12	1214.84375	39808.0	0.0	0.0	
-1.4045801526717556	-36.0	0.549618320610687	92.0	1.3282442748091603	-87.0	-0.03614457831325302	1284.0	9.19277108433735	2050.0	0.08433734939759037	2040.0	-0.4172727272727273	459.0	-0.017272727272727273	-19.0	-0.22244897959183677	218.0	1.5228925055385938E12	1.522892505551E12	1218.75	39936.0	0.0	0.0	
-1.2213740458015268	-49.0	0.7480916030534351	80.0	1.3893129770992365	-91.0	-0.07228915662650603	1283.0	9.204819277108435	2053.0	0.08433734939759037	2040.0	-0.42363636363636364	466.0	-0.017272727272727273	-19.0	-0.22653061224489798	222.0	1.5228925055425E12	1.522892505552E12	1222.65625	40064.0	0.0	0.0	
-1.2519083969465647	-53.0	0.8091603053435115	82.0	1.5114503816793892	-99.0	-0.07228915662650603	1285.0	9.180722891566266	2053.0	0.08433734939759037	2040.0	-0.41909090909090907	461.0	-0.02	-22.0	-0.2295918367346939	225.0	1.5228925055464063E12	1.522892505558E12	1226.5625	40192.0	0.0	0.0	
-1.282442748091603	-47.0	0.7175572519083969	84.0	1.465648854961832	-96.0	-0.08433734939759037	1287.0	9.156626506024097	2054.0	0.08433734939759037	2040.0	-0.41909090909090907	461.0	-0.016363636363636365	-18.0	-0.23163265306122452	227.0	1.5228925055503125E12	1.522892505559E12	1230.46875	40320.0	0.0	0.0	
-1.3129770992366412	-40.0	0.6106870229007634	86.0	1.5267175572519083	-100.0	-0.04819277108433735	1285.0	9.180722891566266	2051.0	0.07228915662650603	2041.0	-0.42363636363636364	466.0	-0.016363636363636365	-18.0	-0.22551020408163266	221.0	1.5228925055542188E12	1.52289250556E12	1234.375	40448.0	0.0	0.0	
-1.3435114503816794	-32.0	0.48854961832061067	88.0	1.450381679389313	-95.0	0.03614457831325302	1284.0	9.19277108433735	2044.0	0.07228915662650603	2041.0	-0.42272727272727273	465.0	-0.025454545454545455	-28.0	-0.2285714285714286	224.0	1.522892505558125E12	1.522892505564E12	1238.28125	40576.0	0.0	0.0	
-1.2519083969465647	-34.0	0.5190839694656488	82.0	1.4809160305343512	-97.0	0.012048192771084338	1284.0	9.19277108433735	2046.0	0.060240963855421686	2042.0	-0.42272727272727273	465.0	-0.025454545454545455	-28.0	-0.2285714285714286	224.0	1.5228925055620313E12	1.522892505603E12	1242.1875	40704.0	0.0	0.0	
-1.2366412213740459	-42.0	0.6412213740458015	81.0	1.3587786259541985	-89.0	0.012048192771084338	1284.0	9.19277108433735	2046.0	0.07228915662650603	2041.0	-0.41545454545454547	457.0	-0.02090909090909091	-23.0	-0.22448979591836737	220.0	1.5228925055659375E12	1.522892505605E12	1246.09375	40832.0	0.0	0.0	
-1.3893129770992365	-37.0	0.564885496183206	91.0	1.3740458015267174	-90.0	-0.04819277108433735	1286.0	9.168674698795181	2051.0	0.08433734939759037	2040.0	-0.42272727272727273	465.0	-0.02	-22.0	-0.22346938775510206	219.0	1.5228925055698438E12	1.522892505605E12	1250.0	40960.0	0.0	0.0	
-1.0381679389312977	-23.0	0.3511450381679389	68.0	1.450381679389313	-95.0	-0.04819277108433735	1285.0	9.180722891566266	2051.0	0.04819277108433735	2043.0	-0.4172727272727273	459.0	-0.007272727272727273	-8.0	-0.21938775510204084	215.0	1.52289250557375E12	1.522892505606E12	1253.90625	41088.0	0.0	0.0	
-1.2213740458015268	-30.0	0.4580152671755725	80.0	1.5114503816793892	-99.0	-0.012048192771084338	1284.0	9.19277108433735	2048.0	0.024096385542168676	2045.0	-0.41454545454545455	456.0	-0.014545454545454545	-16.0	-0.22346938775510206	219.0	1.5228925055776563E12	1.522892505607E12	1257.8125	41216.0	0.0	0.0	
-1.0534351145038168	-33.0	0.5038167938931297	69.0	1.5267175572519083	-100.0	0.060240963855421686	1286.0	9.168674698795181	2042.0	-0.012048192771084338	2048.0	-0.4218181818181818	464.0	-0.01818181818181818	-20.0	-0.22346938775510206	219.0	1.5228925055815625E12	1.522892505608E12	1261.71875	41344.0	0.0	0.0	
-1.1450381679389312	-20.0	0.3053435114503817	75.0	1.618320610687023	-106.0	0.1566265060240964	1284.0	9.19277108433735	2034.0	-0.024096385542168676	2049.0	-0.4218181818181818	464.0	-0.02727272727272727	-30.0	-0.23163265306122452	227.0	1.5228925055854688E12	1.52289250561E12	1265.625	41472.0	0.0	0.0	
-1.099236641221374	-33.0	0.5038167938931297	72.0	1.5114503816793892	-99.0	0.22891566265060243	1283.0	9.204819277108435	2028.0	-0.04819277108433735	2051.0	-0.4218181818181818	464.0	-0.02727272727272727	-30.0	-0.23163265306122452	227.0	1.522892505589375E12	1.522892505619E12	1269.53125	41600.0	0.0	0.0	
-1.1450381679389312	-53.0	0.8091603053435115	75.0	1.3282442748091603	-87.0	0.1927710843373494	1283.0	9.204819277108435	2031.0	-0.03614457831325302	2050.0	-0.42	462.0	-0.017272727272727273	-19.0	-0.2295918367346939	225.0	1.5228925055932813E12	1.522892505619E12	1273.4375	41728.0	0.0	0.0	
-1.2213740458015268	-55.0	0.8396946564885496	80.0	1.1755725190839694	-77.0	0.13253012048192772	1284.0	9.19277108433735	2036.0	-0.060240963855421686	2052.0	-0.42363636363636364	466.0	-0.02181818181818182	-24.0	-0.22142857142857145	217.0	1.5228925055971875E12	1.522892505619E12	1277.34375	41856.0	0.0	0.0	
-1.282442748091603	-49.0	0.7480916030534351	84.0	1.3893129770992365	-91.0	0.0963855421686747	1283.0	9.204819277108435	2039.0	-0.04819277108433735	2051.0	-0.42454545454545456	467.0	-0.02727272727272727	-30.0	-0.2295918367346939	225.0	1.5228925056010938E12	1.522892505619E12	1281.25	41984.0	0.0	0.0	
-1.1603053435114503	-46.0	0.7022900763358778	76.0	1.3129770992366412	-86.0	0.060240963855421686	1282.0	9.216867469879519	2042.0	-0.03614457831325302	2050.0	-0.41818181818181815	460.0	-0.016363636363636365	-18.0	-0.2285714285714286	224.0	1.522892505605E12	1.522892505619E12	1285.15625	42112.0	0.0	0.0	
-1.2519083969465647	-61.0	0.9312977099236641	82.0	1.450381679389313	-95.0	0.060240963855421686	1282.0	9.216867469879519	2042.0	-0.024096385542168676	2049.0	-0.4209090909090909	463.0	-0.026363636363636363	-29.0	-0.22448979591836737	220.0	1.5228925056089063E12	1.522892505624E12	1289.0625	42240.0	0.0	0.0	
-1.3740458015267174	-60.0	0.916030534351145	90.0	1.1755725190839694	-77.0	0.07228915662650603	1284.0	9.19277108433735	2041.0	0.0	2047.0	-0.4209090909090909	463.0	-0.026363636363636363	-29.0	-0.22448979591836737	220.0	1.5228925056128125E12	1.522892505625E12	1292.96875	42368.0	0.0	0.0	
-1.1908396946564885	-40.0	0.6106870229007634	78.0	1.3740458015267174	-90.0	0.060240963855421686	1285.0	9.180722891566266	2042.0	0.012048192771084338	2046.0	-0.4218181818181818	464.0	-0.026363636363636363	-29.0	-0.2295918367346939	225.0	1.5228925056167188E12	1.522892505625E12	1296.875	42496.0	0.0	0.0	
-1.099236641221374	-45.0	0.6870229007633587	72.0	1.5725190839694656	-103.0	0.060240963855421686	1284.0	9.19277108433735	2042.0	0.0	2047.0	-0.4081818181818182	449.0	-0.024545454545454544	-27.0	-0.2285714285714286	224.0	1.522892505620625E12	1.522892505633E12	1300.78125	42624.0	0.0	0.0	
-1.1908396946564885	-54.0	0.8244274809160305	78.0	1.2519083969465647	-82.0	0.012048192771084338	1285.0	9.180722891566266	2046.0	0.012048192771084338	2046.0	-0.4127272727272727	454.0	-0.007272727272727273	-8.0	-0.2306122448979592	226.0	1.5228925056245313E12	1.522892505633E12	1304.6875	42752.0	0.0	0.0	
-1.3740458015267174	-41.0	0.6259541984732824	90.0	1.1908396946564885	-78.0	0.012048192771084338	1283.0	9.204819277108435	2046.0	0.024096385542168676	2045.0	-0.4172727272727273	459.0	-0.02	-22.0	-0.22448979591836737	220.0	1.5228925056284375E12	1.522892505634E12	1308.59375	42880.0	0.0	0.0	
-1.297709923664122	-59.0	0.9007633587786259	85.0	1.2519083969465647	-82.0	0.0	1283.0	9.204819277108435	2047.0	0.024096385542168676	2045.0	-0.41818181818181815	460.0	-0.017272727272727273	-19.0	-0.22653061224489798	222.0	1.5228925056323438E12	1.522892505645E12	1312.5	43008.0	0.0	0.0	
-1.1450381679389312	-42.0	0.6412213740458015	75.0	1.3282442748091603	-87.0	-0.012048192771084338	1285.0	9.180722891566266	2048.0	0.07228915662650603	2041.0	-0.41363636363636364	455.0	-0.008181818181818182	-9.0	-0.2295918367346939	225.0	1.52289250563625E12	1.522892505646E12	1316.40625	43136.0	0.0	0.0	
-1.3282442748091603	-48.0	0.732824427480916	87.0	1.5419847328244274	-101.0	-0.024096385542168676	1285.0	9.180722891566266	2049.0	0.0963855421686747	2039.0	-0.41363636363636364	455.0	-0.008181818181818182	-9.0	-0.2295918367346939	225.0	1.5228925056401563E12	1.522892505646E12	1320.3125	43264.0	0.0	0.0	
-1.4045801526717556	-28.0	0.42748091603053434	92.0	1.1755725190839694	-77.0	0.03614457831325302	1285.0	9.180722891566266	2044.0	0.0963855421686747	2039.0	-0.4163636363636364	458.0	-0.026363636363636363	-29.0	-0.2306122448979592	226.0	1.5228925056440625E12	1.522892505656E12	1324.21875	43392.0	0.0	0.0	
-1.129770992366412	-50.0	0.7633587786259541	74.0	1.3282442748091603	-87.0	0.07228915662650603	1285.0	9.180722891566266	2041.0	0.10843373493975904	2038.0	-0.4209090909090909	463.0	-0.01	-11.0	-0.2285714285714286	224.0	1.5228925056479688E12	1.522892505657E12	1328.125	43520.0	0.0	0.0	
-1.083969465648855	-28.0	0.42748091603053434	71.0	1.5114503816793892	-99.0	0.08433734939759037	1286.0	9.168674698795181	2040.0	0.0963855421686747	2039.0	-0.42363636363636364	466.0	-0.024545454545454544	-27.0	-0.22755102040816327	223.0	1.522892505651875E12	1.522892505659E12	1332.03125	43648.0	0.0	0.0	
-0.9770992366412213	-36.0	0.549618320610687	64.0	1.2671755725190839	-83.0	0.060240963855421686	1284.0	9.19277108433735	2042.0	0.08433734939759037	2040.0	-0.41818181818181815	460.0	-0.01818181818181818	-20.0	-0.22755102040816327	223.0	1.5228925056557813E12	1.52289250567E12	1335.9375	43776.0	0.0	0.0	
-0.9312977099236641	-41.0	0.6259541984732824	61.0	1.2671755725190839	-83.0	0.024096385542168676	1285.0	9.180722891566266	2045.0	0.07228915662650603	2041.0	-0.41909090909090907	461.0	-0.01090909090909091	-12.0	-0.22653061224489798	222.0	1.5228925056596875E12	1.522892505671E12	1339.84375	43904.0	0.0	0.0	
-1.282442748091603	-44.0	0.6717557251908397	84.0	1.2519083969465647	-82.0	-0.024096385542168676	1283.0	9.204819277108435	2049.0	0.07228915662650603	2041.0	-0.4254545454545455	468.0	-0.028181818181818183	-31.0	-0.22551020408163266	221.0	1.5228925056635938E12	1.522892505672E12	1343.75	44032.0	0.0	0.0	
-1.1908396946564885	-38.0	0.5801526717557252	78.0	1.465648854961832	-96.0	-0.04819277108433735	1284.0	9.19277108433735	2051.0	0.07228915662650603	2041.0	-0.4254545454545455	468.0	-0.028181818181818183	-31.0	-0.22551020408163266	221.0	1.5228925056675E12	1.522892505677E12	1347.65625	44160.0	0.0	0.0	
-1.083969465648855	-36.0	0.549618320610687	71.0	1.5877862595419847	-104.0	-0.012048192771084338	1285.0	9.180722891566266	2048.0	0.07228915662650603	2041.0	-0.41545454545454547	457.0	-0.02	-22.0	-0.22755102040816327	223.0	1.5228925056714063E12	1.522892505678E12	1351.5625	44288.0	0.0	0.0	
-1.2519083969465647	-28.0	0.42748091603053434	82.0	1.5114503816793892	-99.0	0.024096385542168676	1286.0	9.168674698795181	2045.0	0.04819277108433735	2043.0	-0.4127272727272727	454.0	-0.00909090909090909	-10.0	-0.22551020408163266	221.0	1.5228925056753125E12	1.522892505679E12	1355.46875	44416.0	0.0	0.0	
-1.0687022900763359	-30.0	0.4580152671755725	70.0	1.5267175572519083	-100.0	0.08433734939759037	1285.0	9.180722891566266	2040.0	0.03614457831325302	2044.0	-0.42272727272727273	465.0	-0.025454545454545455	-28.0	-0.22346938775510206	219.0	1.5228925056792188E12	1.52289250569E12	1359.375	44544.0	0.0	0.0	
-1.0687022900763359	-39.0	0.5954198473282443	70.0	1.5877862595419847	-104.0	0.13253012048192772	1285.0	9.180722891566266	2036.0	0.03614457831325302	2044.0	-0.4218181818181818	464.0	-0.019090909090909092	-21.0	-0.22346938775510206	219.0	1.522892505683125E12	1.522892505691E12	1363.28125	44672.0	0.0	0.0	
-1.0687022900763359	-27.0	0.41221374045801523	70.0	1.4351145038167938	-94.0	0.12048192771084337	1284.0	9.19277108433735	2037.0	0.0	2047.0	-0.42363636363636364	466.0	-0.019090909090909092	-21.0	-0.22142857142857145	217.0	1.5228925056870313E12	1.522892505692E12	1367.1875	44800.0	0.0	0.0	
-1.2213740458015268	-43.0	0.6564885496183206	80.0	1.3435114503816794	-88.0	0.10843373493975904	1283.0	9.204819277108435	2038.0	-0.024096385542168676	2049.0	-0.42272727272727273	465.0	-0.02090909090909091	-23.0	-0.22653061224489798	222.0	1.5228925056909375E12	1.522892505707E12	1371.09375	44928.0	0.0	0.0	
-1.282442748091603	-33.0	0.5038167938931297	84.0	1.3893129770992365	-91.0	0.10843373493975904	1283.0	9.204819277108435	2038.0	-0.03614457831325302	2050.0	-0.42272727272727273	465.0	-0.02090909090909091	-23.0	-0.22653061224489798	222.0	1.5228925056948438E12	1.522892505708E12	1375.0	45056.0	0.0	0.0	
-1.2213740458015268	-43.0	0.6564885496183206	80.0	1.2671755725190839	-83.0	0.08433734939759037	1283.0	9.204819277108435	2040.0	-0.024096385542168676	2049.0	-0.41818181818181815	460.0	-0.025454545454545455	-28.0	-0.2295918367346939	225.0	1.52289250569875E12	1.522892505712E12	1378.90625	45184.0	0.0	0.0	
-1.2519083969465647	-45.0	0.6870229007633587	82.0	1.4961832061068703	-98.0	0.08433734939759037	1283.0	9.204819277108435	2040.0	0.0	2047.0	-0.42363636363636364	466.0	-0.016363636363636365	-18.0	-0.22244897959183677	218.0	1.5228925057026563E12	1.522892505755E12	1382.8125	45312.0	0.0	0.0	
-1.129770992366412	-48.0	0.732824427480916	74.0	1.2671755725190839	-83.0	0.08433734939759037	1285.0	9.180722891566266	2040.0	0.0	2047.0	-0.41818181818181815	460.0	-0.013636363636363636	-15.0	-0.22755102040816327	223.0	1.5228925057065625E12	1.522892505756E12	1386.71875	45440.0	0.0	0.0	
-1.1908396946564885	-47.0	0.7175572519083969	78.0	1.2519083969465647	-82.0	0.12048192771084337	1284.0	9.19277108433735	2037.0	-0.012048192771084338	2048.0	-0.41909090909090907	461.0	-0.024545454545454544	-27.0	-0.22755102040816327	223.0	1.5228925057104688E12	1.522892505757E12	1390.625	45568.0	0.0	0.0	
-1.0381679389312977	-59.0	0.9007633587786259	68.0	1.3893129770992365	-91.0	0.07228915662650603	1283.0	9.204819277108435	2041.0	-0.024096385542168676	2049.0	-0.42454545454545456	467.0	-0.016363636363636365	-18.0	-0.22551020408163266	221.0	1.522892505714375E12	1.522892505758E12	1394.53125	45696.0	0.0	0.0	
-1.114503816793893	-58.0	0.8854961832061068	73.0	1.4045801526717556	-92.0	0.060240963855421686	1282.0	9.216867469879519	2042.0	-0.03614457831325302	2050.0	-0.4209090909090909	463.0	-0.016363636363636365	-18.0	-0.22244897959183677	218.0	1.5228925057182813E12	1.52289250576E12	1398.4375	45824.0	0.0	0.0	
-0.9923664122137404	-39.0	0.5954198473282443	65.0	1.465648854961832	-96.0	0.04819277108433735	1283.0	9.204819277108435	2043.0	-0.012048192771084338	2048.0	-0.4209090909090909	463.0	-0.016363636363636365	-18.0	-0.22244897959183677	218.0	1.5228925057221875E12	1.522892505761E12	1402.34375	45952.0	0.0	0.0	
-1.2671755725190839	-62.0	0.9465648854961831	83.0	1.4045801526717556	-92.0	0.012048192771084338	1284.0	9.19277108433735	2046.0	0.024096385542168676	2045.0	-0.41545454545454547	457.0	-0.015454545454545455	-17.0	-0.2306122448979592	226.0	1.5228925057260938E12	1.522892505761E12	1406.25	46080.0	0.0	0.0	
-1.282442748091603	-45.0	0.6870229007633587	84.0	1.2213740458015268	-80.0	0.024096385542168676	1284.0	9.19277108433735	2045.0	0.060240963855421686	2042.0	-0.42363636363636364	466.0	-0.016363636363636365	-18.0	-0.22653061224489798	222.0	1.52289250573E12	1.522892505763E12	1410.15625	46208.0	0.0	0.0	
-1.3740458015267174	-48.0	0.732824427480916	90.0	1.3129770992366412	-86.0	0.012048192771084338	1286.0	9.168674698795181	2046.0	0.07228915662650603	2041.0	-0.4209090909090909	463.0	-0.02181818181818182	-24.0	-0.2295918367346939	225.0	1.5228925057339063E12	1.522892505764E12	1414.0625	46336.0	0.0	0.0	
-1.099236641221374	-41.0	0.6259541984732824	72.0	1.3740458015267174	-90.0	0.0	1283.0	9.204819277108435	2047.0	0.10843373493975904	2038.0	-0.41818181818181815	460.0	-0.01090909090909091	-12.0	-0.22551020408163266	221.0	1.5228925057378125E12	1.522892505765E12	1417.96875	46464.0	0.0	0.0	
-1.2671755725190839	-42.0	0.6412213740458015	83.0	1.4809160305343512	-97.0	-0.024096385542168676	1286.0	9.168674698795181	2049.0	0.12048192771084337	2037.0	-0.42	462.0	-0.012727272727272728	-14.0	-0.22448979591836737	220.0	1.5228925057417188E12	1.522892505766E12	1421.875	46592.0	0.0	0.0	
-1.129770992366412	-43.0	0.6564885496183206	74.0	1.3129770992366412	-86.0	-0.012048192771084338	1284.0	9.19277108433735	2048.0	0.13253012048192772	2036.0	-0.42	462.0	-0.02727272727272727	-30.0	-0.22653061224489798	222.0	1.522892505745625E12	1.522892505767E12	1425.78125	46720.0	0.0	0.0	
-1.099236641221374	-33.0	0.5038167938931297	72.0	1.3129770992366412	-86.0	0.0	1283.0	9.204819277108435	2047.0	0.10843373493975904	2038.0	-0.42	462.0	-0.02727272727272727	-30.0	-0.22653061224489798	222.0	1.5228925057495313E12	1.522892505767E12	1429.6875	46848.0	0.0	0.0	
-0.8244274809160305	-24.0	0.366412213740458	54.0	1.3282442748091603	-87.0	0.04819277108433735	1284.0	9.19277108433735	2043.0	0.10843373493975904	2038.0	-0.41545454545454547	457.0	-0.005454545454545455	-6.0	-0.22551020408163266	221.0	1.5228925057534375E12	1.522892505768E12	1433.59375	46976.0	0.0	0.0	
-1.099236641221374	-27.0	0.41221374045801523	72.0	1.3435114503816794	-88.0	0.04819277108433735	1284.0	9.19277108433735	2043.0	0.0963855421686747	2039.0	-0.4209090909090909	463.0	-0.017272727272727273	-19.0	-0.2285714285714286	224.0	1.5228925057573438E12	1.522892505769E12	1437.5	47104.0	0.0	0.0	
-1.0534351145038168	-37.0	0.564885496183206	69.0	1.3435114503816794	-88.0	0.10843373493975904	1285.0	9.180722891566266	2038.0	0.0963855421686747	2039.0	-0.41363636363636364	455.0	-0.014545454545454545	-16.0	-0.2285714285714286	224.0	1.52289250576125E12	1.522892505771E12	1441.40625	47232.0	0.0	0.0	
-1.0534351145038168	-33.0	0.5038167938931297	69.0	1.3893129770992365	-91.0	0.0963855421686747	1284.0	9.19277108433735	2039.0	0.0963855421686747	2039.0	-0.4172727272727273	459.0	-0.011818181818181818	-13.0	-0.2285714285714286	224.0	1.5228925057651563E12	1.522892505771E12	1445.3125	47360.0	0.0	0.0	
-1.0687022900763359	-52.0	0.7938931297709924	70.0	1.297709923664122	-85.0	0.060240963855421686	1284.0	9.19277108433735	2042.0	0.10843373493975904	2038.0	-0.41363636363636364	455.0	-0.0027272727272727275	-3.0	-0.21734693877551023	213.0	1.5228925057690625E12	1.522892505772E12	1449.21875	47488.0	0.0	0.0	
-0.916030534351145	-45.0	0.6870229007633587	60.0	1.297709923664122	-85.0	0.03614457831325302	1284.0	9.19277108433735	2044.0	0.060240963855421686	2042.0	-0.41363636363636364	455.0	-0.019090909090909092	-21.0	-0.22142857142857145	217.0	1.5228925057729688E12	1.522892505783E12	1453.125	47616.0	0.0	0.0	
-0.9312977099236641	-42.0	0.6412213740458015	61.0	1.297709923664122	-85.0	0.024096385542168676	1284.0	9.19277108433735	2045.0	0.060240963855421686	2042.0	-0.42272727272727273	465.0	-0.019090909090909092	-21.0	-0.22142857142857145	217.0	1.522892505776875E12	1.522892505784E12	1457.03125	47744.0	0.0	0.0	
-0.9465648854961831	-60.0	0.916030534351145	62.0	1.4045801526717556	-92.0	0.024096385542168676	1283.0	9.204819277108435	2045.0	0.03614457831325302	2044.0	-0.42363636363636364	466.0	-0.014545454545454545	-16.0	-0.2285714285714286	224.0	1.5228925057807813E12	1.522892505785E12	1460.9375	47872.0	0.0	0.0	
-0.8549618320610687	-58.0	0.8854961832061068	56.0	1.1908396946564885	-78.0	0.03614457831325302	1284.0	9.19277108433735	2044.0	0.03614457831325302	2044.0	-0.42272727272727273	465.0	-0.02181818181818182	-24.0	-0.22142857142857145	217.0	1.5228925057846875E12	1.522892505796E12	1464.84375	48000.0	0.0	0.0	
-0.9465648854961831	-48.0	0.732824427480916	62.0	1.3435114503816794	-88.0	0.024096385542168676	1285.0	9.180722891566266	2045.0	0.012048192771084338	2046.0	-0.42363636363636364	466.0	-0.026363636363636363	-29.0	-0.2295918367346939	225.0	1.5228925057885938E12	1.522892505797E12	1468.75	48128.0	0.0	0.0	
-1.0076335877862594	-43.0	0.6564885496183206	66.0	1.4351145038167938	-94.0	0.012048192771084338	1284.0	9.19277108433735	2046.0	0.024096385542168676	2045.0	-0.4172727272727273	459.0	-0.01090909090909091	-12.0	-0.22755102040816327	223.0	1.5228925057925E12	1.522892505798E12	1472.65625	48256.0	0.0	0.0	
-0.8702290076335878	-40.0	0.6106870229007634	57.0	1.297709923664122	-85.0	0.0	1284.0	9.19277108433735	2047.0	0.024096385542168676	2045.0	-0.41363636363636364	455.0	-0.00909090909090909	-10.0	-0.2295918367346939	225.0	1.5228925057964063E12	1.522892505819E12	1476.5625	48384.0	0.0	0.0	
-0.9465648854961831	-30.0	0.4580152671755725	62.0	1.4809160305343512	-97.0	0.024096385542168676	1285.0	9.180722891566266	2045.0	0.03614457831325302	2044.0	-0.41363636363636364	455.0	-0.00909090909090909	-10.0	-0.2295918367346939	225.0	1.5228925058003125E12	1.52289250582E12	1480.46875	48512.0	0.0	0.0	
-0.9312977099236641	-36.0	0.549618320610687	61.0	1.3893129770992365	-91.0	0.07228915662650603	1284.0	9.19277108433735	2041.0	0.012048192771084338	2046.0	-0.4172727272727273	459.0	-0.025454545454545455	-28.0	-0.23163265306122452	227.0	1.5228925058042188E12	1.522892505821E12	1484.375	48640.0	0.0	0.0	
-0.8091603053435115	-24.0	0.366412213740458	53.0	1.3587786259541985	-89.0	0.10843373493975904	1284.0	9.19277108433735	2038.0	0.024096385542168676	2045.0	-0.42	462.0	-0.016363636363636365	-18.0	-0.23163265306122452	227.0	1.522892505808125E12	1.522892505821E12	1488.28125	48768.0	0.0	0.0	
-0.8244274809160305	-46.0	0.7022900763358778	54.0	1.297709923664122	-85.0	0.07228915662650603	1284.0	9.19277108433735	2041.0	-0.012048192771084338	2048.0	-0.42454545454545456	467.0	-0.026363636363636363	-29.0	-0.22448979591836737	220.0	1.5228925058120313E12	1.522892505827E12	1492.1875	48896.0	0.0	0.0	
-1.129770992366412	-42.0	0.6412213740458015	74.0	1.1450381679389312	-75.0	0.03614457831325302	1283.0	9.204819277108435	2044.0	-0.024096385542168676	2049.0	-0.4163636363636364	458.0	-0.02727272727272727	-30.0	-0.2306122448979592	226.0	1.5228925058159375E12	1.522892505828E12	1496.09375	49024.0	0.0	0.0	
-0.9312977099236641	-55.0	0.8396946564885496	61.0	1.4045801526717556	-92.0	-0.024096385542168676	1283.0	9.204819277108435	2049.0	-0.012048192771084338	2048.0	-0.4209090909090909	463.0	-0.019090909090909092	-21.0	-0.22755102040816327	223.0	1.5228925058198438E12	1.522892505829E12	1500.0	49152.0	0.0	0.0	
-0.9923664122137404	-50.0	0.7633587786259541	65.0	1.4198473282442747	-93.0	-0.03614457831325302	1284.0	9.19277108433735	2050.0	0.012048192771084338	2046.0	-0.41454545454545455	456.0	-0.02090909090909091	-23.0	-0.2295918367346939	225.0	1.52289250582375E12	1.522892505831E12	1503.90625	49280.0	0.0	0.0	
-1.2061068702290076	-46.0	0.7022900763358778	79.0	1.3129770992366412	-86.0	-0.07228915662650603	1285.0	9.180722891566266	2053.0	0.024096385542168676	2045.0	-0.41454545454545455	456.0	-0.02090909090909091	-23.0	-0.2295918367346939	225.0	1.5228925058276563E12	1.522892505832E12	1507.8125	49408.0	0.0	0.0	
-0.9618320610687022	-54.0	0.8244274809160305	63.0	1.5114503816793892	-99.0	-0.03614457831325302	1286.0	9.168674698795181	2050.0	0.024096385542168676	2045.0	-0.41545454545454547	457.0	-0.02	-22.0	-0.22755102040816327	223.0	1.5228925058315625E12	1.522892505833E12	1511.71875	49536.0	0.0	0.0	
-1.083969465648855	-54.0	0.8244274809160305	71.0	1.4809160305343512	-97.0	0.012048192771084338	1285.0	9.180722891566266	2046.0	0.03614457831325302	2044.0	-0.41909090909090907	461.0	-0.02	-22.0	-0.22244897959183677	218.0	1.5228925058354688E12	1.522892505846E12	1515.625	49664.0	0.0	0.0	
-1.129770992366412	-66.0	1.0076335877862594	74.0	1.3435114503816794	-88.0	0.024096385542168676	1284.0	9.19277108433735	2045.0	0.03614457831325302	2044.0	-0.42363636363636364	466.0	-0.025454545454545455	-28.0	-0.22653061224489798	222.0	1.522892505839375E12	1.522892505847E12	1519.53125	49792.0	0.0	0.0	
-1.2519083969465647	-44.0	0.6717557251908397	82.0	1.5419847328244274	-101.0	-0.024096385542168676	1283.0	9.204819277108435	2049.0	0.03614457831325302	2044.0	-0.41818181818181815	460.0	-0.02090909090909091	-23.0	-0.22653061224489798	222.0	1.5228925058432813E12	1.522892505848E12	1523.4375	49920.0	0.0	0.0	
-1.2213740458015268	-46.0	0.7022900763358778	80.0	1.282442748091603	-84.0	-0.04819277108433735	1283.0	9.204819277108435	2051.0	0.04819277108433735	2043.0	-0.41818181818181815	460.0	-0.008181818181818182	-9.0	-0.22653061224489798	222.0	1.5228925058471875E12	1.522892505863E12	1527.34375	50048.0	0.0	0.0	
-0.9465648854961831	-49.0	0.7480916030534351	62.0	1.4961832061068703	-98.0	-0.060240963855421686	1283.0	9.204819277108435	2052.0	0.060240963855421686	2042.0	-0.4218181818181818	464.0	-0.025454545454545455	-28.0	-0.22448979591836737	220.0	1.5228925058510938E12	1.522892505865E12	1531.25	50176.0	0.0	0.0	
-1.129770992366412	-34.0	0.5190839694656488	74.0	1.5419847328244274	-101.0	-0.04819277108433735	1284.0	9.19277108433735	2051.0	0.07228915662650603	2041.0	-0.4218181818181818	464.0	-0.025454545454545455	-28.0	-0.22448979591836737	220.0	1.522892505855E12	1.522892505866E12	1535.15625	50304.0	0.0	0.0	
-1.2366412213740459	-33.0	0.5038167938931297	81.0	1.6030534351145038	-105.0	-0.04819277108433735	1284.0	9.19277108433735	2051.0	0.0963855421686747	2039.0	-0.4163636363636364	458.0	-0.02090909090909091	-23.0	-0.2285714285714286	224.0	1.5228925058589063E12	1.522892505867E12	1539.0625	50432.0	0.0	0.0	
-0.9618320610687022	-34.0	0.5190839694656488	63.0	1.648854961832061	-108.0	-0.024096385542168676	1285.0	9.180722891566266	2049.0	0.10843373493975904	2038.0	-0.4172727272727273	459.0	-0.01090909090909091	-12.0	-0.22755102040816327	223.0	1.5228925058628125E12	1.522892505868E12	1542.96875	50560.0	0.0	0.0	
-1.0229007633587786	-29.0	0.4427480916030534	67.0	1.3893129770992365	-91.0	-0.012048192771084338	1285.0	9.180722891566266	2048.0	0.10843373493975904	2038.0	-0.42454545454545456	467.0	-0.025454545454545455	-28.0	-0.22755102040816327	223.0	1.5228925058667188E12	1.52289250587E12	1546.875	50688.0	0.0	0.0	
-1.0534351145038168	-41.0	0.6259541984732824	69.0	1.66412213740458	-109.0	0.03614457831325302	1284.0	9.19277108433735	2044.0	0.12048192771084337	2037.0	-0.4172727272727273	459.0	-0.026363636363636363	-29.0	-0.2295918367346939	225.0	1.522892505870625E12	1.522892505906E12	1550.78125	50816.0	0.0	0.0	
-0.7480916030534351	-44.0	0.6717557251908397	49.0	1.6030534351145038	-105.0	0.03614457831325302	1284.0	9.19277108433735	2044.0	0.0963855421686747	2039.0	-0.4209090909090909	463.0	-0.017272727272727273	-19.0	-0.22448979591836737	220.0	1.5228925058745313E12	1.522892505907E12	1554.6875	50944.0	0.0	0.0	
-0.9923664122137404	-37.0	0.564885496183206	65.0	1.5419847328244274	-101.0	0.04819277108433735	1284.0	9.19277108433735	2043.0	0.07228915662650603	2041.0	-0.4172727272727273	459.0	-0.00909090909090909	-10.0	-0.22040816326530616	216.0	1.5228925058784375E12	1.522892505908E12	1558.59375	51072.0	0.0	0.0	
-1.0076335877862594	-40.0	0.6106870229007634	66.0	1.618320610687023	-106.0	0.060240963855421686	1284.0	9.19277108433735	2042.0	0.060240963855421686	2042.0	-0.4172727272727273	459.0	-0.00909090909090909	-10.0	-0.22040816326530616	216.0	1.5228925058823438E12	1.52289250591E12	1562.5	51200.0	0.0	0.0	
-0.8702290076335878	-37.0	0.564885496183206	57.0	1.5877862595419847	-104.0	0.08433734939759037	1282.0	9.216867469879519	2040.0	0.07228915662650603	2041.0	-0.4163636363636364	458.0	-0.017272727272727273	-19.0	-0.22346938775510206	219.0	1.52289250588625E12	1.522892505911E12	1566.40625	51328.0	0.0	0.0	
-0.9618320610687022	-27.0	0.41221374045801523	63.0	1.5877862595419847	-104.0	0.07228915662650603	1284.0	9.19277108433735	2041.0	0.07228915662650603	2041.0	-0.42363636363636364	466.0	-0.015454545454545455	-17.0	-0.22448979591836737	220.0	1.5228925058901563E12	1.522892505912E12	1570.3125	51456.0	0.0	0.0	
-1.0076335877862594	-50.0	0.7633587786259541	66.0	1.465648854961832	-96.0	0.07228915662650603	1285.0	9.180722891566266	2041.0	0.0963855421686747	2039.0	-0.42454545454545456	467.0	-0.02727272727272727	-30.0	-0.22755102040816327	223.0	1.5228925058940625E12	1.522892505913E12	1574.21875	51584.0	0.0	0.0	
-1.0687022900763359	-39.0	0.5954198473282443	70.0	1.5419847328244274	-101.0	0.060240963855421686	1284.0	9.19277108433735	2042.0	0.10843373493975904	2038.0	-0.4163636363636364	458.0	-0.02909090909090909	-32.0	-0.23163265306122452	227.0	1.5228925058979688E12	1.522892505914E12	1578.125	51712.0	0.0	0.0	
-0.7633587786259541	-46.0	0.7022900763358778	50.0	1.5267175572519083	-100.0	0.060240963855421686	1284.0	9.19277108433735	2042.0	0.08433734939759037	2040.0	-0.4263636363636364	469.0	-0.017272727272727273	-19.0	-0.22448979591836737	220.0	1.522892505901875E12	1.522892505915E12	1582.03125	51840.0	0.0	0.0	
-0.7938931297709924	-36.0	0.549618320610687	52.0	1.5114503816793892	-99.0	0.0963855421686747	1283.0	9.204819277108435	2039.0	0.060240963855421686	2042.0	-0.42	462.0	-0.026363636363636363	-29.0	-0.2306122448979592	226.0	1.5228925059057813E12	1.522892505916E12	1585.9375	51968.0	0.0	0.0	
-0.8396946564885496	-44.0	0.6717557251908397	55.0	1.6335877862595418	-107.0	0.10843373493975904	1284.0	9.19277108433735	2038.0	0.07228915662650603	2041.0	-0.42	462.0	-0.026363636363636363	-29.0	-0.2306122448979592	226.0	1.5228925059096875E12	1.522892505917E12	1589.84375	52096.0	0.0	0.0	
-0.7938931297709924	-46.0	0.7022900763358778	52.0	1.3282442748091603	-87.0	0.0963855421686747	1283.0	9.204819277108435	2039.0	0.04819277108433735	2043.0	-0.41909090909090907	461.0	-0.025454545454545455	-28.0	-0.2295918367346939	225.0	1.5228925059135938E12	1.522892505918E12	1593.75	52224.0	0.0	0.0	
-0.6870229007633587	-47.0	0.7175572519083969	45.0	1.2671755725190839	-83.0	0.07228915662650603	1285.0	9.180722891566266	2041.0	0.024096385542168676	2045.0	-0.4218181818181818	464.0	-0.016363636363636365	-18.0	-0.22448979591836737	220.0	1.5228925059175E12	1.522892505933E12	1597.65625	52352.0	0.0	0.0	
-0.7633587786259541	-49.0	0.7480916030534351	50.0	1.4351145038167938	-94.0	0.012048192771084338	1283.0	9.204819277108435	2046.0	0.012048192771084338	2046.0	-0.4209090909090909	463.0	-0.016363636363636365	-18.0	-0.22040816326530616	216.0	1.5228925059214063E12	1.522892505935E12	1601.5625	52480.0	0.0	0.0	
-0.8244274809160305	-38.0	0.5801526717557252	54.0	1.297709923664122	-85.0	0.024096385542168676	1285.0	9.180722891566266	2045.0	0.03614457831325302	2044.0	-0.4163636363636364	458.0	-0.02090909090909091	-23.0	-0.22448979591836737	220.0	1.5228925059253125E12	1.522892505936E12	1605.46875	52608.0	0.0	0.0	
-0.8854961832061068	-40.0	0.6106870229007634	58.0	1.465648854961832	-96.0	0.03614457831325302	1285.0	9.180722891566266	2044.0	0.04819277108433735	2043.0	-0.41545454545454547	457.0	-0.011818181818181818	-13.0	-0.22040816326530616	216.0	1.5228925059292188E12	1.522892505937E12	1609.375	52736.0	0.0	0.0	
-0.8549618320610687	-32.0	0.48854961832061067	56.0	1.465648854961832	-96.0	0.10843373493975904	1284.0	9.19277108433735	2038.0	0.03614457831325302	2044.0	-0.41909090909090907	461.0	-0.02090909090909091	-23.0	-0.2295918367346939	225.0	1.522892505933125E12	1.522892505938E12	1613.28125	52864.0	0.0	0.0	
-0.7938931297709924	-39.0	0.5954198473282443	52.0	1.3587786259541985	-89.0	0.13253012048192772	1284.0	9.19277108433735	2036.0	0.04819277108433735	2043.0	-0.41909090909090907	461.0	-0.02090909090909091	-23.0	-0.2295918367346939	225.0	1.5228925059370313E12	1.52289250594E12	1617.1875	52992.0	0.0	0.0	
-0.7480916030534351	-41.0	0.6259541984732824	49.0	1.4809160305343512	-97.0	0.10843373493975904	1285.0	9.180722891566266	2038.0	0.03614457831325302	2044.0	-0.41545454545454547	457.0	-0.017272727272727273	-19.0	-0.22244897959183677	218.0	1.5228925059409375E12	1.522892505952E12	1621.09375	53120.0	0.0	0.0	
-0.7175572519083969	-52.0	0.7938931297709924	47.0	1.297709923664122	-85.0	0.024096385542168676	1284.0	9.19277108433735	2045.0	0.012048192771084338	2046.0	-0.42363636363636364	466.0	-0.017272727272727273	-19.0	-0.22653061224489798	222.0	1.5228925059448438E12	1.522892505954E12	1625.0	53248.0	0.0	0.0	
-0.6412213740458015	-46.0	0.7022900763358778	42.0	1.2366412213740459	-81.0	-0.012048192771084338	1285.0	9.180722891566266	2048.0	0.012048192771084338	2046.0	-0.4209090909090909	463.0	-0.02909090909090909	-32.0	-0.2306122448979592	226.0	1.52289250594875E12	1.522892505955E12	1628.90625	53376.0	0.0	0.0	
-0.8702290076335878	-38.0	0.5801526717557252	57.0	1.4961832061068703	-98.0	-0.04819277108433735	1283.0	9.204819277108435	2051.0	0.012048192771084338	2046.0	-0.41818181818181815	460.0	-0.013636363636363636	-15.0	-0.2285714285714286	224.0	1.5228925059526563E12	1.522892505967E12	1632.8125	53504.0	0.0	0.0	
-0.8396946564885496	-57.0	0.8702290076335878	55.0	1.5114503816793892	-99.0	-0.060240963855421686	1283.0	9.204819277108435	2052.0	0.03614457831325302	2044.0	-0.42454545454545456	467.0	-0.02	-22.0	-0.22244897959183677	218.0	1.5228925059565625E12	1.522892505968E12	1636.71875	53632.0	0.0	0.0	
-0.8854961832061068	-47.0	0.7175572519083969	58.0	1.4961832061068703	-98.0	-0.03614457831325302	1284.0	9.19277108433735	2050.0	0.04819277108433735	2043.0	-0.42454545454545456	467.0	-0.02727272727272727	-30.0	-0.2306122448979592	226.0	1.5228925059604688E12	1.522892505969E12	1640.625	53760.0	0.0	0.0	
-0.8244274809160305	-46.0	0.7022900763358778	54.0	1.4045801526717556	-92.0	-0.04819277108433735	1285.0	9.180722891566266	2051.0	0.04819277108433735	2043.0	-0.4209090909090909	463.0	-0.02727272727272727	-30.0	-0.2306122448979592	226.0	1.522892505964375E12	1.522892505979E12	1644.53125	53888.0	0.0	0.0	
-0.7480916030534351	-54.0	0.8244274809160305	49.0	1.5267175572519083	-100.0	-0.07228915662650603	1286.0	9.168674698795181	2053.0	0.03614457831325302	2044.0	-0.4218181818181818	464.0	-0.015454545454545455	-17.0	-0.2295918367346939	225.0	1.5228925059682813E12	1.52289250598E12	1648.4375	54016.0	0.0	0.0	
-0.8702290076335878	-58.0	0.8854961832061068	57.0	1.6793893129770991	-110.0	-0.07228915662650603	1284.0	9.19277108433735	2053.0	0.03614457831325302	2044.0	-0.42	462.0	-0.02181818181818182	-24.0	-0.22142857142857145	217.0	1.5228925059721875E12	1.522892505982E12	1652.34375	54144.0	0.0	0.0	
-0.7786259541984732	-39.0	0.5954198473282443	51.0	1.8015267175572518	-118.0	-0.07228915662650603	1284.0	9.19277108433735	2053.0	0.04819277108433735	2043.0	-0.42	462.0	-0.025454545454545455	-28.0	-0.2295918367346939	225.0	1.5228925059760938E12	1.52289250599E12	1656.25	54272.0	0.0	0.0	
-0.8091603053435115	-32.0	0.48854961832061067	53.0	1.4809160305343512	-97.0	-0.08433734939759037	1286.0	9.168674698795181	2054.0	0.024096385542168676	2045.0	-0.41454545454545455	456.0	-0.015454545454545455	-17.0	-0.22653061224489798	222.0	1.52289250598E12	1.522892505991E12	1660.15625	54400.0	0.0	0.0	
-0.8091603053435115	-19.0	0.2900763358778626	53.0	1.7709923664122136	-116.0	-0.024096385542168676	1285.0	9.180722891566266	2049.0	0.04819277108433735	2043.0	-0.4118181818181818	453.0	-0.02181818181818182	-24.0	-0.22448979591836737	220.0	1.5228925059839063E12	1.522892505992E12	1664.0625	54528.0	0.0	0.0	
-0.9465648854961831	-13.0	0.1984732824427481	62.0	1.5572519083969465	-102.0	0.012048192771084338	1286.0	9.168674698795181	2046.0	0.03614457831325302	2044.0	-0.4118181818181818	453.0	-0.02181818181818182	-24.0	-0.22448979591836737	220.0	1.5228925059878125E12	1.522892505997E12	1667.96875	54656.0	0.0	0.0	
-0.8091603053435115	-23.0	0.3511450381679389	53.0	1.6335877862595418	-107.0	0.03614457831325302	1285.0	9.180722891566266	2044.0	0.024096385542168676	2045.0	-0.42272727272727273	465.0	-0.025454545454545455	-28.0	-0.2306122448979592	226.0	1.5228925059917188E12	1.522892505998E12	1671.875	54784.0	0.0	0.0	
-0.7633587786259541	-25.0	0.38167938931297707	50.0	1.5725190839694656	-103.0	0.024096385542168676	1284.0	9.19277108433735	2045.0	0.0	2047.0	-0.4263636363636364	469.0	-0.015454545454545455	-17.0	-0.2285714285714286	224.0	1.522892505995625E12	1.522892506003E12	1675.78125	54912.0	0.0	0.0	
-0.6870229007633587	-40.0	0.6106870229007634	45.0	2.091603053435114	-137.0	0.03614457831325302	1285.0	9.180722891566266	2044.0	0.012048192771084338	2046.0	-0.42272727272727273	465.0	-0.023636363636363636	-26.0	-0.22755102040816327	223.0	1.5228925059995313E12	1.522892506012E12	1679.6875	55040.0	0.0	0.0	
-0.9465648854961831	-31.0	0.47328244274809156	62.0	1.7251908396946565	-113.0	0.04819277108433735	1285.0	9.180722891566266	2043.0	-0.012048192771084338	2048.0	-0.4209090909090909	463.0	-0.00909090909090909	-10.0	-0.22448979591836737	220.0	1.5228925060034375E12	1.522892506013E12	1683.59375	55168.0	0.0	0.0	
-0.8702290076335878	-37.0	0.564885496183206	57.0	1.7862595419847327	-117.0	0.07228915662650603	1283.0	9.204819277108435	2041.0	-0.024096385542168676	2049.0	-0.41909090909090907	461.0	-0.012727272727272728	-14.0	-0.2285714285714286	224.0	1.5228925060073438E12	1.522892506014E12	1687.5	55296.0	0.0	0.0	
-0.8549618320610687	-41.0	0.6259541984732824	56.0	1.6946564885496183	-111.0	0.07228915662650603	1282.0	9.216867469879519	2041.0	-0.012048192771084338	2048.0	-0.41363636363636364	455.0	-0.02181818181818182	-24.0	-0.22244897959183677	218.0	1.52289250601125E12	1.522892506023E12	1691.40625	55424.0	0.0	0.0	
-1.0076335877862594	-47.0	0.7175572519083969	66.0	1.5114503816793892	-99.0	0.08433734939759037	1283.0	9.204819277108435	2040.0	0.0	2047.0	-0.41363636363636364	455.0	-0.02181818181818182	-24.0	-0.22244897959183677	218.0	1.5228925060151563E12	1.522892506024E12	1695.3125	55552.0	0.0	0.0	
-0.9923664122137404	-44.0	0.6717557251908397	65.0	1.7862595419847327	-117.0	0.08433734939759037	1285.0	9.180722891566266	2040.0	0.024096385542168676	2045.0	-0.41545454545454547	457.0	-0.01818181818181818	-20.0	-0.22346938775510206	219.0	1.5228925060190625E12	1.522892506025E12	1699.21875	55680.0	0.0	0.0	
-0.9007633587786259	-41.0	0.6259541984732824	59.0	1.8015267175572518	-118.0	0.08433734939759037	1285.0	9.180722891566266	2040.0	0.03614457831325302	2044.0	-0.41909090909090907	461.0	-0.014545454545454545	-16.0	-0.22755102040816327	223.0	1.5228925060229688E12	1.522892506058E12	1703.125	55808.0	0.0	0.0	
-0.916030534351145	-38.0	0.5801526717557252	60.0	1.6946564885496183	-111.0	0.0963855421686747	1285.0	9.180722891566266	2039.0	0.03614457831325302	2044.0	-0.4127272727272727	454.0	-0.004545454545454545	-5.0	-0.22755102040816327	223.0	1.522892506026875E12	1.52289250606E12	1707.03125	55936.0	0.0	0.0	
-0.8091603053435115	-40.0	0.6106870229007634	53.0	1.66412213740458	-109.0	0.10843373493975904	1285.0	9.180722891566266	2038.0	0.04819277108433735	2043.0	-0.4209090909090909	463.0	-0.02181818181818182	-24.0	-0.22448979591836737	220.0	1.5228925060307813E12	1.522892506062E12	1710.9375	56064.0	0.0	0.0	
-0.8091603053435115	-27.0	0.41221374045801523	53.0	1.5725190839694656	-103.0	0.14457831325301207	1283.0	9.204819277108435	2035.0	0.024096385542168676	2045.0	-0.41818181818181815	460.0	-0.011818181818181818	-13.0	-0.2295918367346939	225.0	1.5228925060346875E12	1.522892506064E12	1714.84375	56192.0	0.0	0.0	
-0.8702290076335878	-31.0	0.47328244274809156	57.0	1.6335877862595418	-107.0	0.1566265060240964	1284.0	9.19277108433735	2034.0	0.012048192771084338	2046.0	-0.42363636363636364	466.0	-0.024545454545454544	-27.0	-0.22551020408163266	221.0	1.5228925060385938E12	1.522892506066E12	1718.75	56320.0	0.0	0.0	
-0.7786259541984732	-40.0	0.6106870229007634	51.0	1.66412213740458	-109.0	0.12048192771084337	1282.0	9.216867469879519	2037.0	0.0	2047.0	-0.42363636363636364	466.0	-0.024545454545454544	-27.0	-0.22551020408163266	221.0	1.5228925060425E12	1.522892506067E12	1722.65625	56448.0	0.0	0.0	
-0.8854961832061068	-37.0	0.564885496183206	58.0	1.3587786259541985	-89.0	0.0963855421686747	1284.0	9.19277108433735	2039.0	0.024096385542168676	2045.0	-0.41454545454545455	456.0	-0.022727272727272728	-25.0	-0.2295918367346939	225.0	1.5228925060464063E12	1.522892506067E12	1726.5625	56576.0	0.0	0.0	
-0.9923664122137404	-44.0	0.6717557251908397	65.0	1.4809160305343512	-97.0	0.04819277108433735	1285.0	9.180722891566266	2043.0	0.024096385542168676	2045.0	-0.41818181818181815	460.0	-0.01818181818181818	-20.0	-0.22653061224489798	222.0	1.5228925060503125E12	1.522892506068E12	1730.46875	56704.0	0.0	0.0	
-0.8244274809160305	-44.0	0.6717557251908397	54.0	1.5572519083969465	-102.0	0.060240963855421686	1283.0	9.204819277108435	2042.0	0.03614457831325302	2044.0	-0.42363636363636364	466.0	-0.02727272727272727	-30.0	-0.22755102040816327	223.0	1.5228925060542188E12	1.522892506069E12	1734.375	56832.0	0.0	0.0	
-0.9465648854961831	-43.0	0.6564885496183206	62.0	1.5267175572519083	-100.0	0.07228915662650603	1285.0	9.180722891566266	2041.0	0.060240963855421686	2042.0	-0.41909090909090907	461.0	-0.023636363636363636	-26.0	-0.2295918367346939	225.0	1.522892506058125E12	1.52289250607E12	1738.28125	56960.0	0.0	0.0	
-0.8244274809160305	-46.0	0.7022900763358778	54.0	1.6030534351145038	-105.0	0.08433734939759037	1284.0	9.19277108433735	2040.0	0.04819277108433735	2043.0	-0.4209090909090909	463.0	-0.012727272727272728	-14.0	-0.22551020408163266	221.0	1.5228925060620313E12	1.522892506077E12	1742.1875	57088.0	0.0	0.0	
-0.5954198473282443	-43.0	0.6564885496183206	39.0	1.5572519083969465	-102.0	0.10843373493975904	1285.0	9.180722891566266	2038.0	0.03614457831325302	2044.0	-0.42363636363636364	466.0	-0.028181818181818183	-31.0	-0.22755102040816327	223.0	1.5228925060659375E12	1.522892506083E12	1746.09375	57216.0	0.0	0.0	
-0.9007633587786259	-39.0	0.5954198473282443	59.0	1.5419847328244274	-101.0	0.10843373493975904	1285.0	9.180722891566266	2038.0	0.024096385542168676	2045.0	-0.42363636363636364	466.0	-0.028181818181818183	-31.0	-0.22755102040816327	223.0	1.5228925060698438E12	1.522892506084E12	1750.0	57344.0	0.0	0.0	
-0.6870229007633587	-23.0	0.3511450381679389	45.0	1.5419847328244274	-101.0	0.10843373493975904	1283.0	9.204819277108435	2038.0	0.012048192771084338	2046.0	-0.41909090909090907	461.0	-0.016363636363636365	-18.0	-0.21938775510204084	215.0	1.52289250607375E12	1.522892506085E12	1753.90625	57472.0	0.0	0.0	
-0.9770992366412213	-22.0	0.33587786259541985	64.0	1.4809160305343512	-97.0	0.10843373493975904	1284.0	9.19277108433735	2038.0	0.024096385542168676	2045.0	-0.4127272727272727	454.0	-0.01090909090909091	-12.0	-0.22346938775510206	219.0	1.5228925060776563E12	1.522892506085E12	1757.8125	57600.0	0.0	0.0	
-1.0229007633587786	-46.0	0.7022900763358778	67.0	1.3893129770992365	-91.0	0.0963855421686747	1285.0	9.180722891566266	2039.0	0.04819277108433735	2043.0	-0.4218181818181818	464.0	-0.024545454545454544	-27.0	-0.22755102040816327	223.0	1.5228925060815625E12	1.522892506086E12	1761.71875	57728.0	0.0	0.0	
-0.7633587786259541	-33.0	0.5038167938931297	50.0	1.3893129770992365	-91.0	0.0963855421686747	1283.0	9.204819277108435	2039.0	0.060240963855421686	2042.0	-0.4163636363636364	458.0	-0.022727272727272728	-25.0	-0.2285714285714286	224.0	1.5228925060854688E12	1.522892506097E12	1765.625	57856.0	0.0	0.0	
-0.7786259541984732	-32.0	0.48854961832061067	51.0	1.3282442748091603	-87.0	0.08433734939759037	1285.0	9.180722891566266	2040.0	0.04819277108433735	2043.0	-0.4118181818181818	453.0	0.0018181818181818182	2.0	-0.22755102040816327	223.0	1.522892506089375E12	1.522892506098E12	1769.53125	57984.0	0.0	0.0	
-0.9312977099236641	-49.0	0.7480916030534351	61.0	1.5572519083969465	-102.0	0.10843373493975904	1283.0	9.204819277108435	2038.0	0.024096385542168676	2045.0	-0.41454545454545455	456.0	-0.007272727272727273	-8.0	-0.22755102040816327	223.0	1.5228925060932813E12	1.522892506099E12	1773.4375	58112.0	0.0	0.0	
-0.8091603053435115	-37.0	0.564885496183206	53.0	1.4351145038167938	-94.0	0.0963855421686747	1285.0	9.180722891566266	2039.0	0.0	2047.0	-0.41454545454545455	456.0	-0.007272727272727273	-8.0	-0.22755102040816327	223.0	1.5228925060971875E12	1.522892506106E12	1777.34375	58240.0	0.0	0.0	
-0.6717557251908397	-50.0	0.7633587786259541	44.0	1.282442748091603	-84.0	0.0963855421686747	1283.0	9.204819277108435	2039.0	-0.024096385542168676	2049.0	-0.41818181818181815	460.0	-0.026363636363636363	-29.0	-0.2285714285714286	224.0	1.5228925061010938E12	1.522892506107E12	1781.25	58368.0	0.0	0.0	
-0.8396946564885496	-49.0	0.7480916030534351	55.0	1.4045801526717556	-92.0	0.10843373493975904	1283.0	9.204819277108435	2038.0	-0.024096385542168676	2049.0	-0.42272727272727273	465.0	-0.012727272727272728	-14.0	-0.22551020408163266	221.0	1.522892506105E12	1.522892506109E12	1785.15625	58496.0	0.0	0.0	
-0.8244274809160305	-52.0	0.7938931297709924	54.0	1.4351145038167938	-94.0	0.10843373493975904	1284.0	9.19277108433735	2038.0	-0.024096385542168676	2049.0	-0.41818181818181815	460.0	-0.016363636363636365	-18.0	-0.22142857142857145	217.0	1.5228925061089063E12	1.522892506124E12	1789.0625	58624.0	0.0	0.0	
-0.732824427480916	-56.0	0.8549618320610687	48.0	1.4045801526717556	-92.0	0.07228915662650603	1284.0	9.19277108433735	2041.0	0.0	2047.0	-0.41909090909090907	461.0	-0.02	-22.0	-0.22142857142857145	217.0	1.5228925061128125E12	1.522892506124E12	1792.96875	58752.0	0.0	0.0	
-0.9923664122137404	-63.0	0.9618320610687022	65.0	1.2671755725190839	-83.0	0.060240963855421686	1284.0	9.19277108433735	2042.0	0.0	2047.0	-0.4218181818181818	464.0	-0.017272727272727273	-19.0	-0.22551020408163266	221.0	1.5228925061167188E12	1.522892506125E12	1796.875	58880.0	0.0	0.0	
-0.8702290076335878	-45.0	0.6870229007633587	57.0	1.282442748091603	-84.0	0.024096385542168676	1283.0	9.204819277108435	2045.0	0.012048192771084338	2046.0	-0.4163636363636364	458.0	-0.016363636363636365	-18.0	-0.22142857142857145	217.0	1.522892506120625E12	1.522892506131E12	1800.78125	59008.0	0.0	0.0	
-0.8396946564885496	-45.0	0.6870229007633587	55.0	1.1450381679389312	-75.0	0.012048192771084338	1284.0	9.19277108433735	2046.0	0.024096385542168676	2045.0	-0.4163636363636364	458.0	-0.016363636363636365	-18.0	-0.22142857142857145	217.0	1.5228925061245313E12	1.522892506131E12	1804.6875	59136.0	0.0	0.0	
-0.7175572519083969	-43.0	0.6564885496183206	47.0	1.2671755725190839	-83.0	0.0	1285.0	9.180722891566266	2047.0	0.012048192771084338	2046.0	-0.4127272727272727	454.0	-0.017272727272727273	-19.0	-0.2285714285714286	224.0	1.5228925061284375E12	1.522892506142E12	1808.59375	59264.0	0.0	0.0	
-0.6870229007633587	-40.0	0.6106870229007634	45.0	1.3282442748091603	-87.0	0.012048192771084338	1285.0	9.180722891566266	2046.0	0.012048192771084338	2046.0	-0.42272727272727273	465.0	-0.015454545454545455	-17.0	-0.22755102040816327	223.0	1.5228925061323438E12	1.522892506153E12	1812.5	59392.0	0.0	0.0	
-0.8396946564885496	-38.0	0.5801526717557252	55.0	1.3435114503816794	-88.0	0.012048192771084338	1283.0	9.204819277108435	2046.0	0.012048192771084338	2046.0	-0.4172727272727273	459.0	-0.015454545454545455	-17.0	-0.22551020408163266	221.0	1.52289250613625E12	1.522892506155E12	1816.40625	59520.0	0.0	0.0	
-0.8702290076335878	-45.0	0.6870229007633587	57.0	1.1450381679389312	-75.0	-0.024096385542168676	1283.0	9.204819277108435	2049.0	0.03614457831325302	2044.0	-0.41454545454545455	456.0	-0.014545454545454545	-16.0	-0.2285714285714286	224.0	1.5228925061401563E12	1.522892506156E12	1820.3125	59648.0	0.0	0.0	
-0.8396946564885496	-18.0	0.2748091603053435	55.0	1.3435114503816794	-88.0	0.012048192771084338	1284.0	9.19277108433735	2046.0	0.04819277108433735	2043.0	-0.41363636363636364	455.0	-0.02090909090909091	-23.0	-0.22653061224489798	222.0	1.5228925061440625E12	1.522892506157E12	1824.21875	59776.0	0.0	0.0	
-0.9007633587786259	-32.0	0.48854961832061067	59.0	1.3893129770992365	-91.0	-0.012048192771084338	1285.0	9.180722891566266	2048.0	0.08433734939759037	2040.0	-0.41363636363636364	455.0	-0.02181818181818182	-24.0	-0.22653061224489798	222.0	1.5228925061479688E12	1.522892506158E12	1828.125	59904.0	0.0	0.0	
-1.0229007633587786	-28.0	0.42748091603053434	67.0	1.6335877862595418	-107.0	0.0	1285.0	9.180722891566266	2047.0	0.07228915662650603	2041.0	-0.4172727272727273	459.0	-0.02181818181818182	-24.0	-0.22653061224489798	222.0	1.522892506151875E12	1.522892506159E12	1832.03125	60032.0	0.0	0.0	
-0.7175572519083969	-30.0	0.4580152671755725	47.0	1.3435114503816794	-88.0	0.012048192771084338	1285.0	9.180722891566266	2046.0	0.07228915662650603	2041.0	-0.41363636363636364	455.0	-0.016363636363636365	-18.0	-0.22551020408163266	221.0	1.5228925061557813E12	1.522892506168E12	1835.9375	60160.0	0.0	0.0	
-0.916030534351145	-27.0	0.41221374045801523	60.0	1.3587786259541985	-89.0	0.012048192771084338	1286.0	9.168674698795181	2046.0	0.060240963855421686	2042.0	-0.4254545454545455	468.0	-0.019090909090909092	-21.0	-0.22346938775510206	219.0	1.5228925061596875E12	1.522892506169E12	1839.84375	60288.0	0.0	0.0	
-0.7938931297709924	-39.0	0.5954198473282443	52.0	1.465648854961832	-96.0	0.024096385542168676	1285.0	9.180722891566266	2045.0	0.03614457831325302	2044.0	-0.41909090909090907	461.0	-0.028181818181818183	-31.0	-0.2285714285714286	224.0	1.5228925061635938E12	1.52289250617E12	1843.75	60416.0	0.0	0.0	
-0.6564885496183206	-16.0	0.24427480916030533	43.0	1.7099236641221374	-112.0	0.07228915662650603	1287.0	9.156626506024097	2041.0	0.0	2047.0	-0.42272727272727273	465.0	-0.014545454545454545	-16.0	-0.22551020408163266	221.0	1.5228925061675E12	1.522892506192E12	1847.65625	60544.0	0.0	0.0	
-0.6564885496183206	-18.0	0.2748091603053435	43.0	1.5725190839694656	-103.0	0.14457831325301207	1284.0	9.19277108433735	2035.0	0.0	2047.0	-0.41363636363636364	455.0	-0.014545454545454545	-16.0	-0.22142857142857145	217.0	1.5228925061714063E12	1.522892506193E12	1851.5625	60672.0	0.0	0.0	
-0.7938931297709924	-17.0	0.2595419847328244	52.0	1.4809160305343512	-97.0	0.18072289156626506	1284.0	9.19277108433735	2032.0	-0.024096385542168676	2049.0	-0.41363636363636364	455.0	-0.014545454545454545	-16.0	-0.22142857142857145	217.0	1.5228925061753125E12	1.522892506194E12	1855.46875	60800.0	0.0	0.0	
-0.7633587786259541	-42.0	0.6412213740458015	50.0	1.3893129770992365	-91.0	0.16867469879518074	1283.0	9.204819277108435	2033.0	-0.024096385542168676	2049.0	-0.4209090909090909	463.0	-0.024545454545454544	-27.0	-0.2295918367346939	225.0	1.5228925061792188E12	1.522892506197E12	1859.375	60928.0	0.0	0.0	
-0.9007633587786259	-42.0	0.6412213740458015	59.0	1.3435114503816794	-88.0	0.1566265060240964	1282.0	9.216867469879519	2034.0	-0.024096385542168676	2049.0	-0.4090909090909091	450.0	-0.023636363636363636	-26.0	-0.22653061224489798	222.0	1.522892506183125E12	1.522892506198E12	1863.28125	61056.0	0.0	0.0	
-0.8396946564885496	-55.0	0.8396946564885496	55.0	1.3129770992366412	-86.0	0.10843373493975904	1283.0	9.204819277108435	2038.0	-0.024096385542168676	2049.0	-0.42272727272727273	465.0	-0.02090909090909091	-23.0	-0.22448979591836737	220.0	1.5228925061870313E12	1.522892506199E12	1867.1875	61184.0	0.0	0.0	
-0.9618320610687022	-49.0	0.7480916030534351	63.0	1.2519083969465647	-82.0	0.07228915662650603	1283.0	9.204819277108435	2041.0	-0.024096385542168676	2049.0	-0.42	462.0	-0.023636363636363636	-26.0	-0.23163265306122452	227.0	1.5228925061909375E12	1.5228925062E12	1871.09375	61312.0	0.0	0.0	
-0.7938931297709924	-55.0	0.8396946564885496	52.0	1.3893129770992365	-91.0	0.060240963855421686	1282.0	9.216867469879519	2042.0	-0.024096385542168676	2049.0	-0.4172727272727273	459.0	-0.015454545454545455	-17.0	-0.2285714285714286	224.0	1.5228925061948438E12	1.5228925062E12	1875.0	61440.0	0.0	0.0	
-0.7938931297709924	-56.0	0.8549618320610687	52.0	1.3893129770992365	-91.0	0.07228915662650603	1283.0	9.204819277108435	2041.0	-0.03614457831325302	2050.0	-0.42	462.0	-0.022727272727272728	-25.0	-0.22448979591836737	220.0	1.52289250619875E12	1.522892506201E12	1878.90625	61568.0	0.0	0.0	
-0.9312977099236641	-56.0	0.8549618320610687	61.0	1.3435114503816794	-88.0	0.060240963855421686	1285.0	9.180722891566266	2042.0	-0.04819277108433735	2051.0	-0.42	462.0	-0.022727272727272728	-25.0	-0.22448979591836737	220.0	1.5228925062026563E12	1.522892506214E12	1882.8125	61696.0	0.0	0.0	
-0.9923664122137404	-59.0	0.9007633587786259	65.0	1.2671755725190839	-83.0	0.04819277108433735	1285.0	9.180722891566266	2043.0	-0.024096385542168676	2049.0	-0.4209090909090909	463.0	-0.02181818181818182	-24.0	-0.22448979591836737	220.0	1.5228925062065625E12	1.522892506215E12	1886.71875	61824.0	0.0	0.0	
-0.9312977099236641	-53.0	0.8091603053435115	61.0	1.4961832061068703	-98.0	0.03614457831325302	1283.0	9.204819277108435	2044.0	0.0	2047.0	-0.42363636363636364	466.0	-0.015454545454545455	-17.0	-0.22653061224489798	222.0	1.5228925062104688E12	1.522892506217E12	1890.625	61952.0	0.0	0.0	
-0.9618320610687022	-60.0	0.916030534351145	63.0	1.2213740458015268	-80.0	0.012048192771084338	1283.0	9.204819277108435	2046.0	0.0	2047.0	-0.4209090909090909	463.0	-0.024545454545454544	-27.0	-0.22346938775510206	219.0	1.522892506214375E12	1.522892506228E12	1894.53125	62080.0	0.0	0.0	
-0.7633587786259541	-44.0	0.6717557251908397	50.0	1.1603053435114503	-76.0	-0.03614457831325302	1283.0	9.204819277108435	2050.0	0.03614457831325302	2044.0	-0.41909090909090907	461.0	-0.023636363636363636	-26.0	-0.2306122448979592	226.0	1.5228925062182813E12	1.522892506233E12	1898.4375	62208.0	0.0	0.0	
-0.9770992366412213	-48.0	0.732824427480916	64.0	1.282442748091603	-84.0	-0.08433734939759037	1284.0	9.19277108433735	2054.0	0.060240963855421686	2042.0	-0.4163636363636364	458.0	-0.016363636363636365	-18.0	-0.2295918367346939	225.0	1.5228925062221875E12	1.522892506234E12	1902.34375	62336.0	0.0	0.0	
-1.083969465648855	-35.0	0.5343511450381679	71.0	1.1755725190839694	-77.0	-0.07228915662650603	1283.0	9.204819277108435	2053.0	0.07228915662650603	2041.0	-0.41454545454545455	456.0	-0.008181818181818182	-9.0	-0.2295918367346939	225.0	1.5228925062260938E12	1.522892506238E12	1906.25	62464.0	0.0	0.0	
-0.7633587786259541	-35.0	0.5343511450381679	50.0	1.4351145038167938	-94.0	-0.08433734939759037	1284.0	9.19277108433735	2054.0	0.07228915662650603	2041.0	-0.41454545454545455	456.0	-0.008181818181818182	-9.0	-0.2295918367346939	225.0	1.52289250623E12	1.522892506239E12	1910.15625	62592.0	0.0	0.0	
-0.9770992366412213	-43.0	0.6564885496183206	64.0	1.4198473282442747	-93.0	-0.08433734939759037	1283.0	9.204819277108435	2054.0	0.08433734939759037	2040.0	-0.4172727272727273	459.0	-0.024545454545454544	-27.0	-0.2295918367346939	225.0	1.5228925062339063E12	1.52289250624E12	1914.0625	62720.0	0.0	0.0	
-0.916030534351145	-36.0	0.549618320610687	60.0	1.4045801526717556	-92.0	-0.04819277108433735	1284.0	9.19277108433735	2051.0	0.0963855421686747	2039.0	-0.41818181818181815	460.0	-0.017272727272727273	-19.0	-0.2306122448979592	226.0	1.5228925062378125E12	1.522892506247E12	1917.96875	62848.0	0.0	0.0	
-1.0076335877862594	-38.0	0.5801526717557252	66.0	1.3587786259541985	-89.0	-0.08433734939759037	1284.0	9.19277108433735	2054.0	0.10843373493975904	2038.0	-0.41818181818181815	460.0	-0.006363636363636364	-7.0	-0.22142857142857145	217.0	1.5228925062417188E12	1.522892506248E12	1921.875	62976.0	0.0	0.0	
-0.9312977099236641	-48.0	0.732824427480916	61.0	1.6335877862595418	-107.0	-0.07228915662650603	1286.0	9.168674698795181	2053.0	0.10843373493975904	2038.0	-0.41545454545454547	457.0	-0.014545454545454545	-16.0	-0.22244897959183677	218.0	1.522892506245625E12	1.522892506249E12	1925.78125	63104.0	0.0	0.0	
-0.7633587786259541	-27.0	0.41221374045801523	50.0	1.3282442748091603	-87.0	-0.0963855421686747	1286.0	9.168674698795181	2055.0	0.10843373493975904	2038.0	-0.41818181818181815	460.0	-0.012727272727272728	-14.0	-0.22448979591836737	220.0	1.5228925062495313E12	1.522892506264E12	1929.6875	63232.0	0.0	0.0	
-0.9770992366412213	-33.0	0.5038167938931297	64.0	1.6946564885496183	-111.0	-0.08433734939759037	1287.0	9.156626506024097	2054.0	0.10843373493975904	2038.0	-0.4218181818181818	464.0	-0.025454545454545455	-28.0	-0.2285714285714286	224.0	1.5228925062534375E12	1.522892506265E12	1933.59375	63360.0	0.0	0.0	
-0.7938931297709924	-32.0	0.48854961832061067	52.0	1.5114503816793892	-99.0	0.0	1285.0	9.180722891566266	2047.0	0.08433734939759037	2040.0	-0.4218181818181818	464.0	-0.025454545454545455	-28.0	-0.2285714285714286	224.0	1.5228925062573438E12	1.522892506266E12	1937.5	63488.0	0.0	0.0	
-0.732824427480916	-27.0	0.41221374045801523	48.0	1.7251908396946565	-113.0	0.03614457831325302	1286.0	9.168674698795181	2044.0	0.060240963855421686	2042.0	-0.41818181818181815	460.0	-0.014545454545454545	-16.0	-0.22448979591836737	220.0	1.52289250626125E12	1.522892506271E12	1941.40625	63616.0	0.0	0.0	
-0.6259541984732824	-14.0	0.21374045801526717	41.0	1.4961832061068703	-98.0	0.10843373493975904	1285.0	9.180722891566266	2038.0	0.012048192771084338	2046.0	-0.4090909090909091	450.0	-0.01090909090909091	-12.0	-0.22346938775510206	219.0	1.5228925062651563E12	1.522892506271E12	1945.3125	63744.0	0.0	0.0	
-0.7022900763358778	-10.0	0.15267175572519084	46.0	1.66412213740458	-109.0	0.10843373493975904	1283.0	9.204819277108435	2038.0	-0.04819277108433735	2051.0	-0.42272727272727273	465.0	-0.02727272727272727	-30.0	-0.22653061224489798	222.0	1.5228925062690625E12	1.522892506272E12	1949.21875	63872.0	0.0	0.0	
-0.7938931297709924	-17.0	0.2595419847328244	52.0	1.83206106870229	-120.0	0.13253012048192772	1284.0	9.19277108433735	2036.0	-0.04819277108433735	2051.0	-0.41454545454545455	456.0	-0.022727272727272728	-25.0	-0.2306122448979592	226.0	1.5228925062729688E12	1.522892506286E12	1953.125	64000.0	0.0	0.0	
-0.7175572519083969	-28.0	0.42748091603053434	47.0	1.297709923664122	-85.0	0.10843373493975904	1282.0	9.216867469879519	2038.0	-0.060240963855421686	2052.0	-0.4081818181818182	449.0	-0.0027272727272727275	-3.0	-0.2285714285714286	224.0	1.522892506276875E12	1.522892506286E12	1957.03125	64128.0	0.0	0.0	
-0.7175572519083969	-48.0	0.732824427480916	47.0	1.6030534351145038	-105.0	0.08433734939759037	1282.0	9.216867469879519	2040.0	-0.07228915662650603	2053.0	-0.4109090909090909	452.0	-0.01818181818181818	-20.0	-0.22448979591836737	220.0	1.5228925062807813E12	1.522892506287E12	1960.9375	64256.0	0.0	0.0	
-0.9465648854961831	-50.0	0.7633587786259541	62.0	1.5419847328244274	-101.0	0.07228915662650603	1283.0	9.204819277108435	2041.0	-0.07228915662650603	2053.0	-0.4109090909090909	452.0	-0.01818181818181818	-20.0	-0.22448979591836737	220.0	1.5228925062846875E12	1.522892506297E12	1964.84375	64384.0	0.0	0.0	
-0.7633587786259541	-30.0	0.4580152671755725	50.0	1.4809160305343512	-97.0	0.08433734939759037	1284.0	9.19277108433735	2040.0	-0.07228915662650603	2053.0	-0.4172727272727273	459.0	-0.02181818181818182	-24.0	-0.2306122448979592	226.0	1.5228925062885938E12	1.522892506297E12	1968.75	64512.0	0.0	0.0	
-0.6870229007633587	-43.0	0.6564885496183206	45.0	1.5419847328244274	-101.0	0.08433734939759037	1284.0	9.19277108433735	2040.0	-0.0963855421686747	2055.0	-0.4209090909090909	463.0	-0.012727272727272728	-14.0	-0.22448979591836737	220.0	1.5228925062925E12	1.522892506299E12	1972.65625	64640.0	0.0	0.0	
-0.8854961832061068	-36.0	0.549618320610687	58.0	1.4961832061068703	-98.0	0.13253012048192772	1285.0	9.180722891566266	2036.0	-0.08433734939759037	2054.0	-0.42363636363636364	466.0	-0.024545454545454544	-27.0	-0.22551020408163266	221.0	1.5228925062964063E12	1.522892506323E12	1976.5625	64768.0	0.0	0.0	
-1.0229007633587786	-64.0	0.9770992366412213	67.0	1.3893129770992365	-91.0	0.10843373493975904	1284.0	9.19277108433735	2038.0	-0.07228915662650603	2053.0	-0.4172727272727273	459.0	-0.023636363636363636	-26.0	-0.22755102040816327	223.0	1.5228925063003125E12	1.522892506324E12	1980.46875	64896.0	0.0	0.0	
-0.7480916030534351	-51.0	0.7786259541984732	49.0	1.5114503816793892	-99.0	0.08433734939759037	1284.0	9.19277108433735	2040.0	-0.07228915662650603	2053.0	-0.4218181818181818	464.0	-0.016363636363636365	-18.0	-0.22142857142857145	217.0	1.5228925063042188E12	1.522892506325E12	1984.375	65024.0	0.0	0.0	
-0.9618320610687022	-54.0	0.8244274809160305	63.0	1.3129770992366412	-86.0	0.07228915662650603	1284.0	9.19277108433735	2041.0	-0.060240963855421686	2052.0	-0.4218181818181818	464.0	-0.00909090909090909	-10.0	-0.2295918367346939	225.0	1.522892506308125E12	1.522892506327E12	1988.28125	65152.0	0.0	0.0	
-1.0229007633587786	-53.0	0.8091603053435115	67.0	1.3282442748091603	-87.0	0.0	1282.0	9.216867469879519	2047.0	-0.024096385542168676	2049.0	-0.41363636363636364	455.0	-0.00909090909090909	-10.0	-0.2295918367346939	225.0	1.5228925063120313E12	1.522892506329E12	1992.1875	65280.0	0.0	0.0	
-1.1450381679389312	-45.0	0.6870229007633587	75.0	1.3435114503816794	-88.0	-0.04819277108433735	1283.0	9.204819277108435	2051.0	0.024096385542168676	2045.0	-0.4163636363636364	458.0	-0.024545454545454544	-27.0	-0.23163265306122452	227.0	1.5228925063159375E12	1.52289250633E12	1996.09375	65408.0	0.0	0.0	
-1.0229007633587786	-50.0	0.7633587786259541	67.0	1.4809160305343512	-97.0	-0.07228915662650603	1284.0	9.19277108433735	2053.0	0.04819277108433735	2043.0	-0.4218181818181818	464.0	-0.015454545454545455	-17.0	-0.21938775510204084	215.0	1.5228925063198438E12	1.522892506331E12	2000.0	0.0	0.0	0.0	
-1.0687022900763359	-29.0	0.4427480916030534	70.0	1.5267175572519083	-100.0	-0.03614457831325302	1285.0	9.180722891566266	2050.0	0.07228915662650603	2041.0	-0.4209090909090909	463.0	-0.024545454545454544	-27.0	-0.22653061224489798	222.0	1.52289250632375E12	1.522892506332E12	2003.90625	128.0	0.0	0.0	
-0.8244274809160305	-54.0	0.8244274809160305	54.0	1.5572519083969465	-102.0	-0.060240963855421686	1286.0	9.168674698795181	2052.0	0.07228915662650603	2041.0	-0.41909090909090907	461.0	-0.02727272727272727	-30.0	-0.2285714285714286	224.0	1.5228925063276563E12	1.522892506333E12	2007.8125	256.0	0.0	0.0	
-1.0687022900763359	-50.0	0.7633587786259541	70.0	1.7557251908396947	-115.0	-0.060240963855421686	1286.0	9.168674698795181	2052.0	0.07228915662650603	2041.0	-0.42363636363636364	466.0	-0.019090909090909092	-21.0	-0.22448979591836737	220.0	1.5228925063315625E12	1.52289250634E12	2011.71875	384.0	0.0	0.0	
-1.0381679389312977	-40.0	0.6106870229007634	68.0	1.7404580152671756	-114.0	0.0	1285.0	9.180722891566266	2047.0	0.07228915662650603	2041.0	-0.42363636363636364	466.0	-0.019090909090909092	-21.0	-0.22448979591836737	220.0	1.5228925063354688E12	1.522892506348E12	2015.625	512.0	0.0	0.0	
-1.114503816793893	-28.0	0.42748091603053434	73.0	1.4351145038167938	-94.0	0.03614457831325302	1285.0	9.180722891566266	2044.0	0.060240963855421686	2042.0	-0.41818181818181815	460.0	-0.014545454545454545	-16.0	-0.22551020408163266	221.0	1.522892506339375E12	1.522892506349E12	2019.53125	640.0	0.0	0.0	
-0.9007633587786259	-23.0	0.3511450381679389	59.0	1.5267175572519083	-100.0	0.012048192771084338	1284.0	9.19277108433735	2046.0	0.060240963855421686	2042.0	-0.4218181818181818	464.0	-0.02	-22.0	-0.22040816326530616	216.0	1.5228925063432813E12	1.52289250635E12	2023.4375	768.0	0.0	0.0	
-0.732824427480916	-29.0	0.4427480916030534	48.0	1.5419847328244274	-101.0	0.012048192771084338	1285.0	9.180722891566266	2046.0	0.060240963855421686	2042.0	-0.4118181818181818	453.0	-0.019090909090909092	-21.0	-0.22653061224489798	222.0	1.5228925063471875E12	1.522892506357E12	2027.34375	896.0	0.0	0.0	
-1.1755725190839694	-40.0	0.6106870229007634	77.0	1.3740458015267174	-90.0	0.024096385542168676	1286.0	9.168674698795181	2045.0	0.03614457831325302	2044.0	-0.42	462.0	-0.017272727272727273	-19.0	-0.2295918367346939	225.0	1.5228925063510938E12	1.522892506358E12	2031.25	1024.0	0.0	0.0	
-0.8244274809160305	-35.0	0.5343511450381679	54.0	1.5725190839694656	-103.0	0.04819277108433735	1285.0	9.180722891566266	2043.0	0.03614457831325302	2044.0	-0.4127272727272727	454.0	-0.013636363636363636	-15.0	-0.2285714285714286	224.0	1.522892506355E12	1.522892506362E12	2035.15625	1152.0	0.0	0.0	
-0.6259541984732824	-39.0	0.5954198473282443	41.0	1.6335877862595418	-107.0	0.04819277108433735	1284.0	9.19277108433735	2043.0	0.0	2047.0	-0.4218181818181818	464.0	-0.016363636363636365	-18.0	-0.22448979591836737	220.0	1.5228925063589063E12	1.522892506375E12	2039.0625	1280.0	0.0	0.0	
-0.9312977099236641	-25.0	0.38167938931297707	61.0	1.6335877862595418	-107.0	0.060240963855421686	1284.0	9.19277108433735	2042.0	-0.024096385542168676	2049.0	-0.4218181818181818	464.0	-0.016363636363636365	-18.0	-0.22448979591836737	220.0	1.5228925063628125E12	1.522892506376E12	2042.96875	1408.0	0.0	0.0	
-0.8854961832061068	-44.0	0.6717557251908397	58.0	1.5419847328244274	-101.0	0.07228915662650603	1283.0	9.204819277108435	2041.0	-0.03614457831325302	2050.0	-0.4209090909090909	463.0	-0.019090909090909092	-21.0	-0.2285714285714286	224.0	1.5228925063667188E12	1.522892506377E12	2046.875	1536.0	0.0	0.0	
-0.8549618320610687	-39.0	0.5954198473282443	56.0	1.7099236641221374	-112.0	0.08433734939759037	1283.0	9.204819277108435	2040.0	-0.04819277108433735	2051.0	-0.4172727272727273	459.0	-0.016363636363636365	-18.0	-0.22448979591836737	220.0	1.522892506370625E12	1.522892506379E12	2050.78125	1664.0	0.0	0.0	
-1.0534351145038168	-35.0	0.5343511450381679	69.0	1.618320610687023	-106.0	0.0963855421686747	1284.0	9.19277108433735	2039.0	-0.060240963855421686	2052.0	-0.4118181818181818	453.0	-0.013636363636363636	-15.0	-0.22244897959183677	218.0	1.5228925063745313E12	1.52289250638E12	2054.6875	1792.0	0.0	0.0	
-0.9465648854961831	-56.0	0.8549618320610687	62.0	1.6946564885496183	-111.0	0.12048192771084337	1282.0	9.216867469879519	2037.0	-0.024096385542168676	2049.0	-0.41909090909090907	461.0	-0.02181818181818182	-24.0	-0.22653061224489798	222.0	1.5228925063784375E12	1.52289250638E12	2058.59375	1920.0	0.0	0.0	
-0.9007633587786259	-50.0	0.7633587786259541	59.0	1.5572519083969465	-102.0	0.0963855421686747	1284.0	9.19277108433735	2039.0	-0.012048192771084338	2048.0	-0.4172727272727273	459.0	-0.013636363636363636	-15.0	-0.22346938775510206	219.0	1.5228925063823438E12	1.522892506393E12	2062.5	2048.0	0.0	0.0	
-0.9618320610687022	-53.0	0.8091603053435115	63.0	1.4961832061068703	-98.0	0.08433734939759037	1283.0	9.204819277108435	2040.0	0.0	2047.0	-0.4127272727272727	454.0	-0.0027272727272727275	-3.0	-0.21836734693877552	214.0	1.52289250638625E12	1.522892506395E12	2066.40625	2176.0	0.0	0.0	
-0.9770992366412213	-47.0	0.7175572519083969	64.0	1.648854961832061	-108.0	0.07228915662650603	1284.0	9.19277108433735	2041.0	0.012048192771084338	2046.0	-0.4127272727272727	454.0	-0.0027272727272727275	-3.0	-0.21836734693877552	214.0	1.5228925063901563E12	1.522892506397E12	2070.3125	2304.0	0.0	0.0	
-1.1450381679389312	-47.0	0.7175572519083969	75.0	1.3435114503816794	-88.0	0.04819277108433735	1284.0	9.19277108433735	2043.0	0.012048192771084338	2046.0	-0.41909090909090907	461.0	-0.007272727272727273	-8.0	-0.22346938775510206	219.0	1.5228925063940625E12	1.522892506407E12	2074.21875	2432.0	0.0	0.0	
-0.8091603053435115	-35.0	0.5343511450381679	53.0	1.4198473282442747	-93.0	0.03614457831325302	1283.0	9.204819277108435	2044.0	0.0	2047.0	-0.4163636363636364	458.0	-0.011818181818181818	-13.0	-0.22755102040816327	223.0	1.5228925063979688E12	1.522892506408E12	2078.125	2560.0	0.0	0.0	
-0.6717557251908397	-41.0	0.6259541984732824	44.0	1.3740458015267174	-90.0	0.03614457831325302	1283.0	9.204819277108435	2044.0	0.0	2047.0	-0.42363636363636364	466.0	-0.02090909090909091	-23.0	-0.22244897959183677	218.0	1.522892506401875E12	1.522892506409E12	2082.03125	2688.0	0.0	0.0	
-0.8549618320610687	-48.0	0.732824427480916	56.0	1.450381679389313	-95.0	0.024096385542168676	1284.0	9.19277108433735	2045.0	-0.012048192771084338	2048.0	-0.4218181818181818	464.0	-0.022727272727272728	-25.0	-0.22448979591836737	220.0	1.5228925064057813E12	1.52289250642E12	2085.9375	2816.0	0.0	0.0	
-1.297709923664122	-45.0	0.6870229007633587	85.0	1.450381679389313	-95.0	-0.024096385542168676	1284.0	9.19277108433735	2049.0	0.03614457831325302	2044.0	-0.4172727272727273	459.0	-0.011818181818181818	-13.0	-0.22653061224489798	222.0	1.5228925064096875E12	1.52289250642E12	2089.84375	2944.0	0.0	0.0	
-1.083969465648855	-33.0	0.5038167938931297	71.0	1.4961832061068703	-98.0	-0.03614457831325302	1284.0	9.19277108433735	2050.0	0.04819277108433735	2043.0	-0.42363636363636364	466.0	-0.022727272727272728	-25.0	-0.22551020408163266	221.0	1.5228925064135938E12	1.522892506425E12	2093.75	3072.0	0.0	0.0	
-0.9770992366412213	-39.0	0.5954198473282443	64.0	1.3893129770992365	-91.0	-0.012048192771084338	1285.0	9.180722891566266	2048.0	0.07228915662650603	2041.0	-0.42363636363636364	466.0	-0.022727272727272728	-25.0	-0.22551020408163266	221.0	1.5228925064175E12	1.522892506432E12	2097.65625	3200.0	0.0	0.0	
-0.8549618320610687	-36.0	0.549618320610687	56.0	1.5725190839694656	-103.0	0.012048192771084338	1286.0	9.168674698795181	2046.0	0.060240963855421686	2042.0	-0.42454545454545456	467.0	-0.02	-22.0	-0.22448979591836737	220.0	1.5228925064214063E12	1.522892506433E12	2101.5625	3328.0	0.0	0.0	
-1.0229007633587786	-26.0	0.3969465648854962	67.0	1.6946564885496183	-111.0	0.060240963855421686	1286.0	9.168674698795181	2042.0	0.04819277108433735	2043.0	-0.41818181818181815	460.0	-0.01	-11.0	-0.22448979591836737	220.0	1.5228925064253125E12	1.522892506434E12	2105.46875	3456.0	0.0	0.0	
-0.732824427480916	-23.0	0.3511450381679389	48.0	1.6335877862595418	-107.0	0.04819277108433735	1284.0	9.19277108433735	2043.0	0.024096385542168676	2045.0	-0.41909090909090907	461.0	-0.025454545454545455	-28.0	-0.22653061224489798	222.0	1.5228925064292188E12	1.522892506438E12	2109.375	3584.0	0.0	0.0	
-0.9923664122137404	-31.0	0.47328244274809156	65.0	1.4351145038167938	-94.0	0.08433734939759037	1285.0	9.180722891566266	2040.0	0.012048192771084338	2046.0	-0.41909090909090907	461.0	-0.008181818181818182	-9.0	-0.22142857142857145	217.0	1.522892506433125E12	1.522892506439E12	2113.28125	3712.0	0.0	0.0	
-0.732824427480916	-32.0	0.48854961832061067	48.0	1.5419847328244274	-101.0	0.07228915662650603	1284.0	9.19277108433735	2041.0	0.012048192771084338	2046.0	-0.41818181818181815	460.0	-0.015454545454545455	-17.0	-0.2295918367346939	225.0	1.5228925064370313E12	1.52289250644E12	2117.1875	3840.0	0.0	0.0	
-1.0076335877862594	-22.0	0.33587786259541985	66.0	1.66412213740458	-109.0	0.08433734939759037	1283.0	9.204819277108435	2040.0	-0.012048192771084338	2048.0	-0.41909090909090907	461.0	-0.024545454545454544	-27.0	-0.22551020408163266	221.0	1.5228925064409375E12	1.522892506476E12	2121.09375	3968.0	0.0	0.0	
-0.9770992366412213	-36.0	0.549618320610687	64.0	1.618320610687023	-106.0	0.08433734939759037	1284.0	9.19277108433735	2040.0	0.0	2047.0	-0.41909090909090907	461.0	-0.024545454545454544	-27.0	-0.22551020408163266	221.0	1.5228925064448438E12	1.522892506477E12	2125.0	4096.0	0.0	0.0	
-1.0229007633587786	-32.0	0.48854961832061067	67.0	1.6335877862595418	-107.0	0.08433734939759037	1284.0	9.19277108433735	2040.0	0.0	2047.0	-0.41818181818181815	460.0	-0.02727272727272727	-30.0	-0.22755102040816327	223.0	1.52289250644875E12	1.522892506479E12	2128.90625	4224.0	0.0	0.0	
-1.0381679389312977	-39.0	0.5954198473282443	68.0	1.618320610687023	-106.0	0.13253012048192772	1286.0	9.168674698795181	2036.0	-0.012048192771084338	2048.0	-0.40636363636363637	447.0	-0.02	-22.0	-0.22653061224489798	222.0	1.5228925064526563E12	1.52289250648E12	2132.8125	4352.0	0.0	0.0	
