left thigh	left thigh	left thigh	left thigh	left thigh	left thigh	left thigh	left thigh	left thigh	left thigh	left thigh	left thigh	left thigh	left thigh	left thigh	left thigh	left thigh	left thigh	left thigh	left thigh	left thigh	left thigh	Annotation	Annotation	
Gyroscope X	Gyroscope X	Gyroscope Y	Gyroscope Y	Gyroscope Z	Gyroscope Z	Low Noise Accelerometer X	Low Noise Accelerometer X	Low Noise Accelerometer Y	Low Noise Accelerometer Y	Low Noise Accelerometer Z	Low Noise Accelerometer Z	Magnetometer X	Magnetometer X	Magnetometer Y	Magnetometer Y	Magnetometer Z	Magnetometer Z	SyncTimestamp	SystemTimestamp	Timestamp	Timestamp	Level	Pulse	
CAL	RAW	CAL	RAW	CAL	RAW	CAL	RAW	CAL	RAW	CAL	RAW	CAL	RAW	CAL	RAW	CAL	RAW	CAL	UNCAL	CAL	RAW	no format	no format	
deg/s	No Units	deg/s	No Units	deg/s	No Units	m/s^2	No Units	m/s^2	No Units	m/s^2	No Units	local flux	No Units	local flux	No Units	local flux	No Units	mSecs	mSecs	mSecs	No Units	no unit	no unit	
-0.4580152671755725	-35.0	0.5343511450381679	30.0	1.5267175572519083	-100.0	-0.03614457831325302	1284.0	9.19277108433735	2050.0	-0.012048192771084338	2048.0	-0.4109090909090909	452.0	-0.017272727272727273	-19.0	-0.2295918367346939	225.0	1.5228925265776563E12	1.522892526611E12	257.8125	8448.0	0.0	0.0	
-0.564885496183206	-32.0	0.48854961832061067	37.0	1.5114503816793892	-99.0	-0.060240963855421686	1284.0	9.19277108433735	2052.0	0.0	2047.0	-0.4209090909090909	463.0	-0.023636363636363636	-26.0	-0.22755102040816327	223.0	1.5228925265815625E12	1.522892526612E12	261.71875	8576.0	0.0	0.0	
-0.3511450381679389	-28.0	0.42748091603053434	23.0	1.5419847328244274	-101.0	-0.012048192771084338	1284.0	9.19277108433735	2048.0	0.012048192771084338	2046.0	-0.4172727272727273	459.0	-0.014545454545454545	-16.0	-0.22653061224489798	222.0	1.5228925265854688E12	1.522892526613E12	265.625	8704.0	0.0	0.0	
-0.5190839694656488	-26.0	0.3969465648854962	34.0	1.5725190839694656	-103.0	-0.012048192771084338	1284.0	9.19277108433735	2048.0	0.04819277108433735	2043.0	-0.4118181818181818	453.0	-0.00909090909090909	-10.0	-0.22142857142857145	217.0	1.522892526589375E12	1.522892526614E12	269.53125	8832.0	0.0	0.0	
-0.48854961832061067	-38.0	0.5801526717557252	32.0	1.6335877862595418	-107.0	-0.03614457831325302	1284.0	9.19277108433735	2050.0	0.04819277108433735	2043.0	-0.42	462.0	-0.022727272727272728	-25.0	-0.22755102040816327	223.0	1.5228925265932813E12	1.522892526615E12	273.4375	8960.0	0.0	0.0	
-0.21374045801526717	-23.0	0.3511450381679389	14.0	1.7099236641221374	-112.0	-0.04819277108433735	1285.0	9.180722891566266	2051.0	0.04819277108433735	2043.0	-0.41454545454545455	456.0	-0.025454545454545455	-28.0	-0.2295918367346939	225.0	1.5228925265971875E12	1.522892526616E12	277.34375	9088.0	0.0	0.0	
-0.549618320610687	-19.0	0.2900763358778626	36.0	1.7099236641221374	-112.0	-0.04819277108433735	1285.0	9.180722891566266	2051.0	0.04819277108433735	2043.0	-0.4218181818181818	464.0	-0.013636363636363636	-15.0	-0.22653061224489798	222.0	1.5228925266010938E12	1.522892526617E12	281.25	9216.0	0.0	0.0	
-0.5343511450381679	-14.0	0.21374045801526717	35.0	1.5725190839694656	-103.0	-0.012048192771084338	1284.0	9.19277108433735	2048.0	0.060240963855421686	2042.0	-0.4218181818181818	464.0	-0.013636363636363636	-15.0	-0.22653061224489798	222.0	1.522892526605E12	1.522892526618E12	285.15625	9344.0	0.0	0.0	
-0.3511450381679389	-15.0	0.22900763358778625	23.0	1.4809160305343512	-97.0	0.012048192771084338	1285.0	9.180722891566266	2046.0	0.04819277108433735	2043.0	-0.4254545454545455	468.0	-0.02727272727272727	-30.0	-0.2306122448979592	226.0	1.5228925266089063E12	1.522892526623E12	289.0625	9472.0	0.0	0.0	
-0.22900763358778625	-23.0	0.3511450381679389	15.0	1.5877862595419847	-104.0	0.0	1286.0	9.168674698795181	2047.0	0.060240963855421686	2042.0	-0.4218181818181818	464.0	-0.024545454545454544	-27.0	-0.2306122448979592	226.0	1.5228925266128125E12	1.522892526624E12	292.96875	9600.0	0.0	0.0	
-0.564885496183206	-32.0	0.48854961832061067	37.0	1.3893129770992365	-91.0	-0.012048192771084338	1284.0	9.19277108433735	2048.0	0.07228915662650603	2041.0	-0.42272727272727273	465.0	-0.011818181818181818	-13.0	-0.22346938775510206	219.0	1.5228925266167188E12	1.522892526625E12	296.875	9728.0	0.0	0.0	
-0.2900763358778626	-19.0	0.2900763358778626	19.0	1.6793893129770991	-110.0	-0.024096385542168676	1285.0	9.180722891566266	2049.0	0.07228915662650603	2041.0	-0.4218181818181818	464.0	-0.025454545454545455	-28.0	-0.2295918367346939	225.0	1.522892526620625E12	1.522892526631E12	300.78125	9856.0	0.0	0.0	
-0.22900763358778625	-18.0	0.2748091603053435	15.0	1.648854961832061	-108.0	-0.04819277108433735	1285.0	9.180722891566266	2051.0	0.060240963855421686	2042.0	-0.41818181818181815	460.0	-0.02181818181818182	-24.0	-0.22653061224489798	222.0	1.5228925266245313E12	1.522892526632E12	304.6875	9984.0	0.0	0.0	
-0.3053435114503817	-31.0	0.47328244274809156	20.0	1.648854961832061	-108.0	-0.03614457831325302	1285.0	9.180722891566266	2050.0	0.060240963855421686	2042.0	-0.41454545454545455	456.0	-0.02727272727272727	-30.0	-0.22551020408163266	221.0	1.5228925266284375E12	1.522892526633E12	308.59375	10112.0	0.0	0.0	
-0.38167938931297707	-20.0	0.3053435114503817	25.0	1.5419847328244274	-101.0	-0.024096385542168676	1284.0	9.19277108433735	2049.0	0.04819277108433735	2043.0	-0.41454545454545455	456.0	-0.02727272727272727	-30.0	-0.22551020408163266	221.0	1.5228925266323438E12	1.522892526644E12	312.5	10240.0	0.0	0.0	
-0.41221374045801523	-21.0	0.32061068702290074	27.0	1.7557251908396947	-115.0	0.04819277108433735	1286.0	9.168674698795181	2043.0	0.012048192771084338	2046.0	-0.42454545454545456	467.0	-0.019090909090909092	-21.0	-0.22551020408163266	221.0	1.52289252663625E12	1.522892526645E12	316.40625	10368.0	0.0	0.0	
-0.366412213740458	-19.0	0.2900763358778626	24.0	1.7251908396946565	-113.0	0.07228915662650603	1285.0	9.180722891566266	2041.0	0.0	2047.0	-0.42	462.0	-0.023636363636363636	-26.0	-0.2295918367346939	225.0	1.5228925266401563E12	1.522892526646E12	320.3125	10496.0	0.0	0.0	
-0.2595419847328244	-35.0	0.5343511450381679	17.0	1.6793893129770991	-110.0	0.04819277108433735	1284.0	9.19277108433735	2043.0	-0.012048192771084338	2048.0	-0.42454545454545456	467.0	-0.013636363636363636	-15.0	-0.22755102040816327	223.0	1.5228925266440625E12	1.522892526658E12	324.21875	10624.0	0.0	0.0	
-0.32061068702290074	-31.0	0.47328244274809156	21.0	1.5725190839694656	-103.0	0.024096385542168676	1284.0	9.19277108433735	2045.0	0.0	2047.0	-0.41909090909090907	461.0	-0.02181818181818182	-24.0	-0.23163265306122452	227.0	1.5228925266479688E12	1.522892526658E12	328.125	10752.0	0.0	0.0	
-0.4580152671755725	-35.0	0.5343511450381679	30.0	1.4351145038167938	-94.0	0.012048192771084338	1284.0	9.19277108433735	2046.0	-0.024096385542168676	2049.0	-0.41818181818181815	460.0	-0.02090909090909091	-23.0	-0.23367346938775513	229.0	1.522892526651875E12	1.522892526658E12	332.03125	10880.0	0.0	0.0	
-0.2595419847328244	-42.0	0.6412213740458015	17.0	1.5877862595419847	-104.0	-0.012048192771084338	1283.0	9.204819277108435	2048.0	-0.024096385542168676	2049.0	-0.41363636363636364	455.0	0.004545454545454545	5.0	-0.2285714285714286	224.0	1.5228925266557813E12	1.522892526665E12	335.9375	11008.0	0.0	0.0	
-0.41221374045801523	-21.0	0.32061068702290074	27.0	1.7099236641221374	-112.0	0.0	1283.0	9.204819277108435	2047.0	-0.03614457831325302	2050.0	-0.41363636363636364	455.0	0.004545454545454545	5.0	-0.2285714285714286	224.0	1.5228925266596875E12	1.522892526666E12	339.84375	11136.0	0.0	0.0	
-0.1984732824427481	-28.0	0.42748091603053434	13.0	1.6946564885496183	-111.0	0.08433734939759037	1284.0	9.19277108433735	2040.0	-0.024096385542168676	2049.0	-0.42	462.0	-0.016363636363636365	-18.0	-0.2285714285714286	224.0	1.5228925266635938E12	1.522892526666E12	343.75	11264.0	0.0	0.0	
-0.366412213740458	-31.0	0.47328244274809156	24.0	1.4198473282442747	-93.0	0.08433734939759037	1285.0	9.180722891566266	2040.0	-0.060240963855421686	2052.0	-0.41818181818181815	460.0	-0.016363636363636365	-18.0	-0.2295918367346939	225.0	1.5228925266675E12	1.522892526679E12	347.65625	11392.0	0.0	0.0	
-0.4580152671755725	-42.0	0.6412213740458015	30.0	1.648854961832061	-108.0	0.060240963855421686	1284.0	9.19277108433735	2042.0	-0.07228915662650603	2053.0	-0.41363636363636364	455.0	-0.019090909090909092	-21.0	-0.22653061224489798	222.0	1.5228925266714063E12	1.522892526681E12	351.5625	11520.0	0.0	0.0	
-0.38167938931297707	-41.0	0.6259541984732824	25.0	1.450381679389313	-95.0	0.03614457831325302	1285.0	9.180722891566266	2044.0	-0.060240963855421686	2052.0	-0.4209090909090909	463.0	-0.02090909090909091	-23.0	-0.2295918367346939	225.0	1.5228925266753125E12	1.522892526681E12	355.46875	11648.0	0.0	0.0	
-0.6564885496183206	-32.0	0.48854961832061067	43.0	1.4961832061068703	-98.0	0.08433734939759037	1283.0	9.204819277108435	2040.0	-0.060240963855421686	2052.0	-0.4209090909090909	463.0	-0.015454545454545455	-17.0	-0.23163265306122452	227.0	1.5228925266792188E12	1.52289252669E12	359.375	11776.0	0.0	0.0	
-0.3969465648854962	-38.0	0.5801526717557252	26.0	1.5572519083969465	-102.0	0.10843373493975904	1283.0	9.204819277108435	2038.0	-0.060240963855421686	2052.0	-0.4209090909090909	463.0	-0.017272727272727273	-19.0	-0.22551020408163266	221.0	1.522892526683125E12	1.522892526691E12	363.28125	11904.0	0.0	0.0	
-0.48854961832061067	-42.0	0.6412213740458015	32.0	1.4045801526717556	-92.0	0.07228915662650603	1282.0	9.216867469879519	2041.0	-0.04819277108433735	2051.0	-0.42272727272727273	465.0	-0.017272727272727273	-19.0	-0.22551020408163266	221.0	1.5228925266870313E12	1.522892526692E12	367.1875	12032.0	0.0	0.0	
-0.42748091603053434	-42.0	0.6412213740458015	28.0	1.4198473282442747	-93.0	0.012048192771084338	1283.0	9.204819277108435	2046.0	-0.060240963855421686	2052.0	-0.4218181818181818	464.0	-0.025454545454545455	-28.0	-0.2295918367346939	225.0	1.5228925266909375E12	1.522892526701E12	371.09375	12160.0	0.0	0.0	
-0.48854961832061067	-45.0	0.6870229007633587	32.0	1.3129770992366412	-86.0	-0.012048192771084338	1282.0	9.216867469879519	2048.0	-0.04819277108433735	2051.0	-0.4163636363636364	458.0	-0.016363636363636365	-18.0	-0.2295918367346939	225.0	1.5228925266948438E12	1.522892526702E12	375.0	12288.0	0.0	0.0	
-0.41221374045801523	-47.0	0.7175572519083969	27.0	1.2519083969465647	-82.0	-0.012048192771084338	1283.0	9.204819277108435	2048.0	-0.024096385542168676	2049.0	-0.42272727272727273	465.0	-0.019090909090909092	-21.0	-0.22346938775510206	219.0	1.52289252669875E12	1.522892526702E12	378.90625	12416.0	0.0	0.0	
-0.8549618320610687	-48.0	0.732824427480916	56.0	1.2213740458015268	-80.0	-0.03614457831325302	1283.0	9.204819277108435	2050.0	0.012048192771084338	2046.0	-0.4218181818181818	464.0	-0.02	-22.0	-0.22142857142857145	217.0	1.5228925267026563E12	1.522892526725E12	382.8125	12544.0	0.0	0.0	
-0.7175572519083969	-45.0	0.6870229007633587	47.0	1.618320610687023	-106.0	-0.04819277108433735	1284.0	9.19277108433735	2051.0	0.024096385542168676	2045.0	-0.4172727272727273	459.0	-0.00909090909090909	-10.0	-0.22346938775510206	219.0	1.5228925267065625E12	1.522892526726E12	386.71875	12672.0	0.0	0.0	
-0.7633587786259541	-25.0	0.38167938931297707	50.0	1.2671755725190839	-83.0	-0.024096385542168676	1286.0	9.168674698795181	2049.0	0.04819277108433735	2043.0	-0.4172727272727273	459.0	-0.00909090909090909	-10.0	-0.22346938775510206	219.0	1.5228925267104688E12	1.522892526726E12	390.625	12800.0	0.0	0.0	
-0.6412213740458015	-44.0	0.6717557251908397	42.0	1.4351145038167938	-94.0	-0.03614457831325302	1285.0	9.180722891566266	2050.0	0.060240963855421686	2042.0	-0.4218181818181818	464.0	-0.01818181818181818	-20.0	-0.22346938775510206	219.0	1.522892526714375E12	1.52289252675E12	394.53125	12928.0	0.0	0.0	
-0.41221374045801523	-39.0	0.5954198473282443	27.0	1.450381679389313	-95.0	-0.060240963855421686	1285.0	9.180722891566266	2052.0	0.0963855421686747	2039.0	-0.42	462.0	-0.007272727272727273	-8.0	-0.22244897959183677	218.0	1.5228925267182813E12	1.522892526751E12	398.4375	13056.0	0.0	0.0	
-0.47328244274809156	-25.0	0.38167938931297707	31.0	1.3893129770992365	-91.0	-0.0963855421686747	1284.0	9.19277108433735	2055.0	0.08433734939759037	2040.0	-0.41909090909090907	461.0	-0.00909090909090909	-10.0	-0.22653061224489798	222.0	1.5228925267221875E12	1.522892526752E12	402.34375	13184.0	0.0	0.0	
-0.47328244274809156	-23.0	0.3511450381679389	31.0	1.450381679389313	-95.0	-0.13253012048192772	1285.0	9.180722891566266	2058.0	0.07228915662650603	2041.0	-0.4218181818181818	464.0	-0.02181818181818182	-24.0	-0.22346938775510206	219.0	1.5228925267260938E12	1.522892526753E12	406.25	13312.0	0.0	0.0	
-0.5801526717557252	-18.0	0.2748091603053435	38.0	1.618320610687023	-106.0	-0.10843373493975904	1284.0	9.19277108433735	2056.0	0.060240963855421686	2042.0	-0.41818181818181815	460.0	-0.02090909090909091	-23.0	-0.2295918367346939	225.0	1.52289252673E12	1.522892526754E12	410.15625	13440.0	0.0	0.0	
-0.41221374045801523	-31.0	0.47328244274809156	27.0	1.4809160305343512	-97.0	-0.10843373493975904	1284.0	9.19277108433735	2056.0	0.08433734939759037	2040.0	-0.4163636363636364	458.0	-0.007272727272727273	-8.0	-0.22653061224489798	222.0	1.5228925267339063E12	1.522892526756E12	414.0625	13568.0	0.0	0.0	
-0.4580152671755725	-24.0	0.366412213740458	30.0	1.5419847328244274	-101.0	-0.08433734939759037	1284.0	9.19277108433735	2054.0	0.07228915662650603	2041.0	-0.4163636363636364	458.0	-0.007272727272727273	-8.0	-0.22653061224489798	222.0	1.5228925267378125E12	1.522892526757E12	417.96875	13696.0	0.0	0.0	
-0.38167938931297707	-19.0	0.2900763358778626	25.0	1.618320610687023	-106.0	-0.07228915662650603	1285.0	9.180722891566266	2053.0	0.03614457831325302	2044.0	-0.4127272727272727	454.0	-0.005454545454545455	-6.0	-0.23163265306122452	227.0	1.5228925267417188E12	1.522892526757E12	421.875	13824.0	0.0	0.0	
-0.47328244274809156	-10.0	0.15267175572519084	31.0	1.7862595419847327	-117.0	-0.024096385542168676	1285.0	9.180722891566266	2049.0	0.0	2047.0	-0.41454545454545455	456.0	-0.00909090909090909	-10.0	-0.2285714285714286	224.0	1.522892526745625E12	1.522892526759E12	425.78125	13952.0	0.0	0.0	
-0.549618320610687	-8.0	0.12213740458015267	36.0	1.648854961832061	-108.0	0.012048192771084338	1284.0	9.19277108433735	2046.0	-0.024096385542168676	2049.0	-0.41909090909090907	461.0	-0.008181818181818182	-9.0	-0.22346938775510206	219.0	1.5228925267495313E12	1.522892526759E12	429.6875	14080.0	0.0	0.0	
-0.42748091603053434	-30.0	0.4580152671755725	28.0	1.6946564885496183	-111.0	0.04819277108433735	1284.0	9.19277108433735	2043.0	-0.03614457831325302	2050.0	-0.42272727272727273	465.0	-0.025454545454545455	-28.0	-0.22551020408163266	221.0	1.5228925267534375E12	1.52289252676E12	433.59375	14208.0	0.0	0.0	
-0.5038167938931297	-20.0	0.3053435114503817	33.0	1.5572519083969465	-102.0	0.024096385542168676	1282.0	9.216867469879519	2045.0	-0.04819277108433735	2051.0	-0.4209090909090909	463.0	-0.012727272727272728	-14.0	-0.2326530612244898	228.0	1.5228925267573438E12	1.522892526761E12	437.5	14336.0	0.0	0.0	
-0.5954198473282443	-31.0	0.47328244274809156	39.0	1.6793893129770991	-110.0	-0.012048192771084338	1284.0	9.19277108433735	2048.0	-0.04819277108433735	2051.0	-0.41909090909090907	461.0	-0.007272727272727273	-8.0	-0.22551020408163266	221.0	1.52289252676125E12	1.522892526781E12	441.40625	14464.0	0.0	0.0	
-0.47328244274809156	-28.0	0.42748091603053434	31.0	1.5572519083969465	-102.0	0.0	1284.0	9.19277108433735	2047.0	-0.07228915662650603	2053.0	-0.41909090909090907	461.0	-0.007272727272727273	-8.0	-0.22551020408163266	221.0	1.5228925267651563E12	1.522892526782E12	445.3125	14592.0	0.0	0.0	
-0.5343511450381679	-29.0	0.4427480916030534	35.0	1.7862595419847327	-117.0	0.04819277108433735	1282.0	9.216867469879519	2043.0	-0.08433734939759037	2054.0	-0.4172727272727273	459.0	-0.006363636363636364	-7.0	-0.2285714285714286	224.0	1.5228925267690625E12	1.522892526782E12	449.21875	14720.0	0.0	0.0	
-0.4427480916030534	-31.0	0.47328244274809156	29.0	1.5114503816793892	-99.0	0.0963855421686747	1282.0	9.216867469879519	2039.0	-0.08433734939759037	2054.0	-0.4218181818181818	464.0	-0.016363636363636365	-18.0	-0.22551020408163266	221.0	1.5228925267729688E12	1.522892526784E12	453.125	14848.0	0.0	0.0	
-0.549618320610687	-28.0	0.42748091603053434	36.0	1.4045801526717556	-92.0	0.0963855421686747	1283.0	9.204819277108435	2039.0	-0.0963855421686747	2055.0	-0.41818181818181815	460.0	-0.007272727272727273	-8.0	-0.22653061224489798	222.0	1.522892526776875E12	1.522892526785E12	457.03125	14976.0	0.0	0.0	
-0.8244274809160305	-43.0	0.6564885496183206	54.0	1.66412213740458	-109.0	0.08433734939759037	1283.0	9.204819277108435	2040.0	-0.0963855421686747	2055.0	-0.4218181818181818	464.0	-0.025454545454545455	-28.0	-0.22653061224489798	222.0	1.5228925267807813E12	1.522892526786E12	460.9375	15104.0	0.0	0.0	
-0.6106870229007634	-32.0	0.48854961832061067	40.0	1.4961832061068703	-98.0	0.07228915662650603	1283.0	9.204819277108435	2041.0	-0.12048192771084337	2057.0	-0.4218181818181818	464.0	-0.01	-11.0	-0.2295918367346939	225.0	1.5228925267846875E12	1.522892526797E12	464.84375	15232.0	0.0	0.0	
-0.7022900763358778	-40.0	0.6106870229007634	46.0	1.465648854961832	-96.0	0.03614457831325302	1284.0	9.19277108433735	2044.0	-0.12048192771084337	2057.0	-0.42	462.0	-0.01	-11.0	-0.2295918367346939	225.0	1.5228925267885938E12	1.522892526798E12	468.75	15360.0	0.0	0.0	
-0.6564885496183206	-45.0	0.6870229007633587	43.0	1.5267175572519083	-100.0	0.024096385542168676	1283.0	9.204819277108435	2045.0	-0.0963855421686747	2055.0	-0.42	462.0	-0.01	-11.0	-0.2295918367346939	225.0	1.5228925267925E12	1.522892526798E12	472.65625	15488.0	0.0	0.0	
-0.6412213740458015	-37.0	0.564885496183206	42.0	1.4198473282442747	-93.0	0.04819277108433735	1284.0	9.19277108433735	2043.0	-0.08433734939759037	2054.0	-0.42	462.0	-0.006363636363636364	-7.0	-0.2163265306122449	212.0	1.5228925267964063E12	1.52289252681E12	476.5625	15616.0	0.0	0.0	
-0.7938931297709924	-39.0	0.5954198473282443	52.0	1.648854961832061	-108.0	0.04819277108433735	1283.0	9.204819277108435	2043.0	-0.07228915662650603	2053.0	-0.42363636363636364	466.0	-0.016363636363636365	-18.0	-0.22244897959183677	218.0	1.5228925268003125E12	1.522892526811E12	480.46875	15744.0	0.0	0.0	
-0.6564885496183206	-37.0	0.564885496183206	43.0	1.282442748091603	-84.0	0.03614457831325302	1283.0	9.204819277108435	2044.0	-0.07228915662650603	2053.0	-0.4209090909090909	463.0	-0.01	-11.0	-0.22551020408163266	221.0	1.5228925268042188E12	1.522892526811E12	484.375	15872.0	0.0	0.0	
-0.6564885496183206	-49.0	0.7480916030534351	43.0	1.4351145038167938	-94.0	-0.012048192771084338	1284.0	9.19277108433735	2048.0	-0.04819277108433735	2051.0	-0.42454545454545456	467.0	-0.022727272727272728	-25.0	-0.22653061224489798	222.0	1.522892526808125E12	1.522892526814E12	488.28125	16000.0	0.0	0.0	
-0.9007633587786259	-42.0	0.6412213740458015	59.0	1.465648854961832	-96.0	-0.03614457831325302	1284.0	9.19277108433735	2050.0	-0.07228915662650603	2053.0	-0.41818181818181815	460.0	-0.019090909090909092	-21.0	-0.23163265306122452	227.0	1.5228925268120313E12	1.522892526821E12	492.1875	16128.0	0.0	0.0	
-0.7786259541984732	-48.0	0.732824427480916	51.0	1.6946564885496183	-111.0	-0.060240963855421686	1283.0	9.204819277108435	2052.0	-0.07228915662650603	2053.0	-0.4209090909090909	463.0	-0.01	-11.0	-0.22551020408163266	221.0	1.5228925268159375E12	1.522892526822E12	496.09375	16256.0	0.0	0.0	
-0.916030534351145	-40.0	0.6106870229007634	60.0	1.3282442748091603	-87.0	-0.0963855421686747	1285.0	9.180722891566266	2055.0	-0.03614457831325302	2050.0	-0.4209090909090909	463.0	-0.01	-11.0	-0.22551020408163266	221.0	1.5228925268198438E12	1.522892526823E12	500.0	16384.0	0.0	0.0	
-0.7786259541984732	-40.0	0.6106870229007634	51.0	1.3893129770992365	-91.0	-0.10843373493975904	1284.0	9.19277108433735	2056.0	-0.012048192771084338	2048.0	-0.4163636363636364	458.0	-0.02	-22.0	-0.22755102040816327	223.0	1.52289252682375E12	1.522892526836E12	503.90625	16512.0	0.0	0.0	
-0.7633587786259541	-40.0	0.6106870229007634	50.0	1.4045801526717556	-92.0	-0.10843373493975904	1286.0	9.168674698795181	2056.0	0.0	2047.0	-0.4172727272727273	459.0	-0.02	-22.0	-0.22755102040816327	223.0	1.5228925268276563E12	1.522892526837E12	507.8125	16640.0	0.0	0.0	
-0.9618320610687022	-40.0	0.6106870229007634	63.0	1.2366412213740459	-81.0	-0.0963855421686747	1286.0	9.168674698795181	2055.0	0.024096385542168676	2045.0	-0.4209090909090909	463.0	-0.012727272727272728	-14.0	-0.22346938775510206	219.0	1.5228925268315625E12	1.522892526838E12	511.71875	16768.0	0.0	0.0	
-0.8091603053435115	-27.0	0.41221374045801523	53.0	1.5572519083969465	-102.0	-0.04819277108433735	1285.0	9.180722891566266	2051.0	0.024096385542168676	2045.0	-0.41545454545454547	457.0	-0.006363636363636364	-7.0	-0.2295918367346939	225.0	1.5228925268354688E12	1.522892526848E12	515.625	16896.0	0.0	0.0	
-0.5343511450381679	-29.0	0.4427480916030534	35.0	1.465648854961832	-96.0	0.0	1284.0	9.19277108433735	2047.0	0.012048192771084338	2046.0	-0.4127272727272727	454.0	-0.02	-22.0	-0.2295918367346939	225.0	1.522892526839375E12	1.522892526848E12	519.53125	17024.0	0.0	0.0	
-0.7633587786259541	-28.0	0.42748091603053434	50.0	1.6946564885496183	-111.0	0.024096385542168676	1284.0	9.19277108433735	2045.0	0.012048192771084338	2046.0	-0.4127272727272727	454.0	-0.013636363636363636	-15.0	-0.22244897959183677	218.0	1.5228925268432813E12	1.522892526849E12	523.4375	17152.0	0.0	0.0	
-0.6412213740458015	-26.0	0.3969465648854962	42.0	1.5877862595419847	-104.0	-0.024096385542168676	1284.0	9.19277108433735	2049.0	0.0	2047.0	-0.42363636363636364	466.0	-0.013636363636363636	-15.0	-0.22244897959183677	218.0	1.5228925268471875E12	1.522892526856E12	527.34375	17280.0	0.0	0.0	
-0.8244274809160305	-33.0	0.5038167938931297	54.0	1.4045801526717556	-92.0	-0.08433734939759037	1282.0	9.216867469879519	2054.0	0.0	2047.0	-0.4209090909090909	463.0	-0.008181818181818182	-9.0	-0.22142857142857145	217.0	1.5228925268510938E12	1.522892526857E12	531.25	17408.0	0.0	0.0	
-0.8244274809160305	-30.0	0.4580152671755725	54.0	1.5572519083969465	-102.0	-0.10843373493975904	1283.0	9.204819277108435	2056.0	0.0	2047.0	-0.41818181818181815	460.0	-0.02	-22.0	-0.22551020408163266	221.0	1.522892526855E12	1.522892526858E12	535.15625	17536.0	0.0	0.0	
-1.0229007633587786	-20.0	0.3053435114503817	67.0	1.6946564885496183	-111.0	-0.060240963855421686	1283.0	9.204819277108435	2052.0	0.012048192771084338	2046.0	-0.42454545454545456	467.0	-0.015454545454545455	-17.0	-0.22244897959183677	218.0	1.5228925268589063E12	1.522892526901E12	539.0625	17664.0	0.0	0.0	
-0.8091603053435115	-19.0	0.2900763358778626	53.0	1.6793893129770991	-110.0	0.0	1283.0	9.204819277108435	2047.0	0.012048192771084338	2046.0	-0.4254545454545455	468.0	-0.02090909090909091	-23.0	-0.2285714285714286	224.0	1.5228925268628125E12	1.522892526903E12	542.96875	17792.0	0.0	0.0	
-0.7786259541984732	-25.0	0.38167938931297707	51.0	1.5419847328244274	-101.0	0.060240963855421686	1283.0	9.204819277108435	2042.0	0.012048192771084338	2046.0	-0.42	462.0	-0.024545454545454544	-27.0	-0.2285714285714286	224.0	1.5228925268667188E12	1.522892526904E12	546.875	17920.0	0.0	0.0	
-0.6564885496183206	-30.0	0.4580152671755725	43.0	1.5877862595419847	-104.0	0.024096385542168676	1284.0	9.19277108433735	2045.0	-0.024096385542168676	2049.0	-0.42	462.0	-0.024545454545454544	-27.0	-0.2285714285714286	224.0	1.522892526870625E12	1.522892526906E12	550.78125	18048.0	0.0	0.0	
-0.6259541984732824	-30.0	0.4580152671755725	41.0	1.3740458015267174	-90.0	0.0	1284.0	9.19277108433735	2047.0	-0.04819277108433735	2051.0	-0.42363636363636364	466.0	-0.015454545454545455	-17.0	-0.22653061224489798	222.0	1.5228925268745313E12	1.522892526907E12	554.6875	18176.0	0.0	0.0	
-0.8549618320610687	-13.0	0.1984732824427481	56.0	1.6946564885496183	-111.0	0.0	1283.0	9.204819277108435	2047.0	-0.07228915662650603	2053.0	-0.4209090909090909	463.0	-0.01818181818181818	-20.0	-0.2285714285714286	224.0	1.5228925268784375E12	1.522892526908E12	558.59375	18304.0	0.0	0.0	
-0.8702290076335878	-37.0	0.564885496183206	57.0	1.6793893129770991	-110.0	0.0	1285.0	9.180722891566266	2047.0	-0.08433734939759037	2054.0	-0.4172727272727273	459.0	-0.02	-22.0	-0.2295918367346939	225.0	1.5228925268823438E12	1.522892526909E12	562.5	18432.0	0.0	0.0	
-0.7938931297709924	-44.0	0.6717557251908397	52.0	1.4961832061068703	-98.0	0.060240963855421686	1284.0	9.19277108433735	2042.0	-0.04819277108433735	2051.0	-0.42454545454545456	467.0	-0.015454545454545455	-17.0	-0.22448979591836737	220.0	1.52289252688625E12	1.52289252691E12	566.40625	18560.0	0.0	0.0	
-0.8244274809160305	-35.0	0.5343511450381679	54.0	1.4961832061068703	-98.0	0.04819277108433735	1285.0	9.180722891566266	2043.0	-0.07228915662650603	2053.0	-0.4209090909090909	463.0	-0.023636363636363636	-26.0	-0.22755102040816327	223.0	1.5228925268901563E12	1.522892526911E12	570.3125	18688.0	0.0	0.0	
-0.9312977099236641	-39.0	0.5954198473282443	61.0	1.7709923664122136	-116.0	0.08433734939759037	1282.0	9.216867469879519	2040.0	-0.060240963855421686	2052.0	-0.4172727272727273	459.0	-0.011818181818181818	-13.0	-0.22551020408163266	221.0	1.5228925268940625E12	1.522892526917E12	574.21875	18816.0	0.0	0.0	
-0.9007633587786259	-33.0	0.5038167938931297	59.0	1.66412213740458	-109.0	0.12048192771084337	1283.0	9.204819277108435	2037.0	-0.060240963855421686	2052.0	-0.4172727272727273	459.0	-0.011818181818181818	-13.0	-0.22551020408163266	221.0	1.5228925268979688E12	1.522892526919E12	578.125	18944.0	0.0	0.0	
-0.9007633587786259	-41.0	0.6259541984732824	59.0	1.4961832061068703	-98.0	0.0963855421686747	1284.0	9.19277108433735	2039.0	-0.08433734939759037	2054.0	-0.42272727272727273	465.0	-0.01818181818181818	-20.0	-0.22551020408163266	221.0	1.522892526901875E12	1.52289252692E12	582.03125	19072.0	0.0	0.0	
-0.9618320610687022	-38.0	0.5801526717557252	63.0	1.6030534351145038	-105.0	0.10843373493975904	1284.0	9.19277108433735	2038.0	-0.10843373493975904	2056.0	-0.42727272727272725	470.0	-0.025454545454545455	-28.0	-0.22755102040816327	223.0	1.5228925269057813E12	1.522892526921E12	585.9375	19200.0	0.0	0.0	
-0.9465648854961831	-39.0	0.5954198473282443	62.0	1.3893129770992365	-91.0	0.14457831325301207	1284.0	9.19277108433735	2035.0	-0.13253012048192772	2058.0	-0.4172727272727273	459.0	-0.01	-11.0	-0.2285714285714286	224.0	1.5228925269096875E12	1.522892526922E12	589.84375	19328.0	0.0	0.0	
-0.9618320610687022	-41.0	0.6259541984732824	63.0	1.297709923664122	-85.0	0.16867469879518074	1283.0	9.204819277108435	2033.0	-0.10843373493975904	2056.0	-0.42363636363636364	466.0	-0.019090909090909092	-21.0	-0.2285714285714286	224.0	1.5228925269135938E12	1.522892526924E12	593.75	19456.0	0.0	0.0	
-0.9618320610687022	-59.0	0.9007633587786259	63.0	1.3282442748091603	-87.0	0.13253012048192772	1282.0	9.216867469879519	2036.0	-0.13253012048192772	2058.0	-0.42	462.0	-0.0036363636363636364	-4.0	-0.21734693877551023	213.0	1.5228925269175E12	1.522892526925E12	597.65625	19584.0	0.0	0.0	
-1.0534351145038168	-51.0	0.7786259541984732	69.0	1.2671755725190839	-83.0	0.03614457831325302	1284.0	9.19277108433735	2044.0	-0.10843373493975904	2056.0	-0.42454545454545456	467.0	-0.013636363636363636	-15.0	-0.22755102040816327	223.0	1.5228925269214063E12	1.522892526926E12	601.5625	19712.0	0.0	0.0	
-0.9618320610687022	-62.0	0.9465648854961831	63.0	1.2061068702290076	-79.0	0.0	1283.0	9.204819277108435	2047.0	-0.13253012048192772	2058.0	-0.42454545454545456	467.0	-0.013636363636363636	-15.0	-0.22755102040816327	223.0	1.5228925269253125E12	1.522892526927E12	605.46875	19840.0	0.0	0.0	
-1.114503816793893	-55.0	0.8396946564885496	73.0	1.297709923664122	-85.0	-0.012048192771084338	1282.0	9.216867469879519	2048.0	-0.12048192771084337	2057.0	-0.42363636363636364	466.0	-0.017272727272727273	-19.0	-0.22142857142857145	217.0	1.5228925269292188E12	1.522892526943E12	609.375	19968.0	0.0	0.0	
-0.9923664122137404	-55.0	0.8396946564885496	65.0	1.5572519083969465	-102.0	-0.024096385542168676	1285.0	9.180722891566266	2049.0	-0.10843373493975904	2056.0	-0.4209090909090909	463.0	-0.006363636363636364	-7.0	-0.22448979591836737	220.0	1.522892526933125E12	1.522892526945E12	613.28125	20096.0	0.0	0.0	
-1.2366412213740459	-59.0	0.9007633587786259	81.0	1.5114503816793892	-99.0	0.024096385542168676	1285.0	9.180722891566266	2045.0	-0.0963855421686747	2055.0	-0.4218181818181818	464.0	-0.013636363636363636	-15.0	-0.2285714285714286	224.0	1.5228925269370313E12	1.522892526946E12	617.1875	20224.0	0.0	0.0	
-1.1755725190839694	-48.0	0.732824427480916	77.0	1.3282442748091603	-87.0	0.03614457831325302	1284.0	9.19277108433735	2044.0	-0.07228915662650603	2053.0	-0.42	462.0	-0.019090909090909092	-21.0	-0.22448979591836737	220.0	1.5228925269409375E12	1.522892526951E12	621.09375	20352.0	0.0	0.0	
-1.0229007633587786	-47.0	0.7175572519083969	67.0	1.4198473282442747	-93.0	0.0	1284.0	9.19277108433735	2047.0	-0.03614457831325302	2050.0	-0.42272727272727273	465.0	-0.026363636363636363	-29.0	-0.22755102040816327	223.0	1.5228925269448438E12	1.522892526952E12	625.0	20480.0	0.0	0.0	
-1.1908396946564885	-49.0	0.7480916030534351	78.0	1.1908396946564885	-78.0	-0.03614457831325302	1284.0	9.19277108433735	2050.0	-0.024096385542168676	2049.0	-0.41818181818181815	460.0	-0.016363636363636365	-18.0	-0.2295918367346939	225.0	1.52289252694875E12	1.522892526953E12	628.90625	20608.0	0.0	0.0	
-1.099236641221374	-52.0	0.7938931297709924	72.0	1.0229007633587786	-67.0	-0.10843373493975904	1283.0	9.204819277108435	2056.0	0.0	2047.0	-0.41818181818181815	460.0	-0.016363636363636365	-18.0	-0.2295918367346939	225.0	1.5228925269526563E12	1.522892526964E12	632.8125	20736.0	0.0	0.0	
-1.083969465648855	-55.0	0.8396946564885496	71.0	1.297709923664122	-85.0	-0.14457831325301207	1284.0	9.19277108433735	2059.0	0.0	2047.0	-0.42272727272727273	465.0	-0.022727272727272728	-25.0	-0.22244897959183677	218.0	1.5228925269565625E12	1.522892526965E12	636.71875	20864.0	0.0	0.0	
-1.099236641221374	-37.0	0.564885496183206	72.0	1.3587786259541985	-89.0	-0.10843373493975904	1285.0	9.180722891566266	2056.0	0.024096385542168676	2045.0	-0.4209090909090909	463.0	-0.008181818181818182	-9.0	-0.22040816326530616	216.0	1.5228925269604688E12	1.522892526966E12	640.625	20992.0	0.0	0.0	
-1.1603053435114503	-47.0	0.7175572519083969	76.0	1.5725190839694656	-103.0	-0.03614457831325302	1285.0	9.180722891566266	2050.0	0.024096385542168676	2045.0	-0.41909090909090907	461.0	-0.013636363636363636	-15.0	-0.2295918367346939	225.0	1.522892526964375E12	1.522892526979E12	644.53125	21120.0	0.0	0.0	
-1.099236641221374	-35.0	0.5343511450381679	72.0	1.4351145038167938	-94.0	0.0	1284.0	9.19277108433735	2047.0	0.024096385542168676	2045.0	-0.4218181818181818	464.0	-0.024545454545454544	-27.0	-0.22653061224489798	222.0	1.5228925269682813E12	1.52289252698E12	648.4375	21248.0	0.0	0.0	
-1.114503816793893	-57.0	0.8702290076335878	73.0	1.618320610687023	-106.0	0.024096385542168676	1285.0	9.180722891566266	2045.0	0.024096385542168676	2045.0	-0.42	462.0	-0.02090909090909091	-23.0	-0.2295918367346939	225.0	1.5228925269721875E12	1.522892526981E12	652.34375	21376.0	0.0	0.0	
-0.9923664122137404	-54.0	0.8244274809160305	65.0	1.465648854961832	-96.0	0.0	1284.0	9.19277108433735	2047.0	0.024096385542168676	2045.0	-0.4072727272727273	448.0	-0.026363636363636363	-29.0	-0.22755102040816327	223.0	1.5228925269760938E12	1.522892526995E12	656.25	21504.0	0.0	0.0	
-1.2671755725190839	-46.0	0.7022900763358778	83.0	1.5267175572519083	-100.0	-0.012048192771084338	1285.0	9.180722891566266	2048.0	0.024096385542168676	2045.0	-0.4072727272727273	448.0	-0.026363636363636363	-29.0	-0.22755102040816327	223.0	1.52289252698E12	1.522892526996E12	660.15625	21632.0	0.0	0.0	
-1.083969465648855	-41.0	0.6259541984732824	71.0	1.450381679389313	-95.0	0.03614457831325302	1285.0	9.180722891566266	2044.0	0.0	2047.0	-0.41454545454545455	456.0	-0.019090909090909092	-21.0	-0.22346938775510206	219.0	1.5228925269839063E12	1.522892526997E12	664.0625	21760.0	0.0	0.0	
-1.1450381679389312	-38.0	0.5801526717557252	75.0	1.5114503816793892	-99.0	0.07228915662650603	1284.0	9.19277108433735	2041.0	-0.012048192771084338	2048.0	-0.4172727272727273	459.0	-0.023636363636363636	-26.0	-0.2306122448979592	226.0	1.5228925269878125E12	1.522892526998E12	667.96875	21888.0	0.0	0.0	
-1.0229007633587786	-42.0	0.6412213740458015	67.0	1.465648854961832	-96.0	0.03614457831325302	1283.0	9.204819277108435	2044.0	0.012048192771084338	2046.0	-0.42	462.0	-0.017272727272727273	-19.0	-0.2285714285714286	224.0	1.5228925269917188E12	1.522892527E12	671.875	22016.0	0.0	0.0	
-1.3435114503816794	-47.0	0.7175572519083969	88.0	1.297709923664122	-85.0	0.0	1284.0	9.19277108433735	2047.0	-0.012048192771084338	2048.0	-0.42272727272727273	465.0	-0.025454545454545455	-28.0	-0.22346938775510206	219.0	1.522892526995625E12	1.522892527001E12	675.78125	22144.0	0.0	0.0	
-1.083969465648855	-42.0	0.6412213740458015	71.0	1.3740458015267174	-90.0	-0.03614457831325302	1284.0	9.19277108433735	2050.0	-0.03614457831325302	2050.0	-0.42	462.0	-0.02	-22.0	-0.22755102040816327	223.0	1.5228925269995313E12	1.522892527011E12	679.6875	22272.0	0.0	0.0	
-1.0076335877862594	-48.0	0.732824427480916	66.0	1.5725190839694656	-103.0	-0.012048192771084338	1283.0	9.204819277108435	2048.0	-0.04819277108433735	2051.0	-0.41909090909090907	461.0	-0.011818181818181818	-13.0	-0.22755102040816327	223.0	1.5228925270034375E12	1.522892527012E12	683.59375	22400.0	0.0	0.0	
-1.2671755725190839	-48.0	0.732824427480916	83.0	1.5267175572519083	-100.0	0.03614457831325302	1284.0	9.19277108433735	2044.0	-0.060240963855421686	2052.0	-0.41909090909090907	461.0	-0.011818181818181818	-13.0	-0.22755102040816327	223.0	1.5228925270073438E12	1.522892527013E12	687.5	22528.0	0.0	0.0	
-1.114503816793893	-49.0	0.7480916030534351	73.0	1.4351145038167938	-94.0	0.060240963855421686	1284.0	9.19277108433735	2042.0	-0.060240963855421686	2052.0	-0.41545454545454547	457.0	-0.004545454545454545	-5.0	-0.22755102040816327	223.0	1.52289252701125E12	1.52289252706E12	691.40625	22656.0	0.0	0.0	
-1.3893129770992365	-37.0	0.564885496183206	91.0	1.3282442748091603	-87.0	0.060240963855421686	1283.0	9.204819277108435	2042.0	-0.08433734939759037	2054.0	-0.41909090909090907	461.0	-0.025454545454545455	-28.0	-0.2326530612244898	228.0	1.5228925270151563E12	1.522892527061E12	695.3125	22784.0	0.0	0.0	
-1.3129770992366412	-42.0	0.6412213740458015	86.0	1.2213740458015268	-80.0	0.04819277108433735	1283.0	9.204819277108435	2043.0	-0.060240963855421686	2052.0	-0.4172727272727273	459.0	-0.007272727272727273	-8.0	-0.22755102040816327	223.0	1.5228925270190625E12	1.522892527063E12	699.21875	22912.0	0.0	0.0	
-1.2061068702290076	-35.0	0.5343511450381679	79.0	1.2671755725190839	-83.0	0.0	1284.0	9.19277108433735	2047.0	-0.060240963855421686	2052.0	-0.42454545454545456	467.0	-0.022727272727272728	-25.0	-0.22448979591836737	220.0	1.5228925270229688E12	1.522892527064E12	703.125	23040.0	0.0	0.0	
-0.9312977099236641	-51.0	0.7786259541984732	61.0	1.4351145038167938	-94.0	-0.04819277108433735	1283.0	9.204819277108435	2051.0	-0.04819277108433735	2051.0	-0.41454545454545455	456.0	-0.02090909090909091	-23.0	-0.22755102040816327	223.0	1.522892527026875E12	1.522892527066E12	707.03125	23168.0	0.0	0.0	
-1.4045801526717556	-40.0	0.6106870229007634	92.0	1.2671755725190839	-83.0	-0.060240963855421686	1284.0	9.19277108433735	2052.0	-0.03614457831325302	2050.0	-0.41454545454545455	456.0	-0.00909090909090909	-10.0	-0.22755102040816327	223.0	1.5228925270307813E12	1.522892527067E12	710.9375	23296.0	0.0	0.0	
-1.1755725190839694	-51.0	0.7786259541984732	77.0	1.4045801526717556	-92.0	-0.07228915662650603	1284.0	9.19277108433735	2053.0	-0.03614457831325302	2050.0	-0.4209090909090909	463.0	-0.00909090909090909	-10.0	-0.22551020408163266	221.0	1.5228925270346875E12	1.522892527068E12	714.84375	23424.0	0.0	0.0	
-1.297709923664122	-34.0	0.5190839694656488	85.0	1.618320610687023	-106.0	-0.024096385542168676	1286.0	9.168674698795181	2049.0	-0.03614457831325302	2050.0	-0.42454545454545456	467.0	-0.028181818181818183	-31.0	-0.2295918367346939	225.0	1.5228925270385938E12	1.522892527069E12	718.75	23552.0	0.0	0.0	
-1.4045801526717556	-51.0	0.7786259541984732	92.0	1.5725190839694656	-103.0	0.012048192771084338	1285.0	9.180722891566266	2046.0	0.0	2047.0	-0.41818181818181815	460.0	-0.025454545454545455	-28.0	-0.2295918367346939	225.0	1.5228925270425E12	1.52289252707E12	722.65625	23680.0	0.0	0.0	
-1.3587786259541985	-52.0	0.7938931297709924	89.0	1.4961832061068703	-98.0	0.03614457831325302	1283.0	9.204819277108435	2044.0	0.0	2047.0	-0.42454545454545456	467.0	-0.012727272727272728	-14.0	-0.22346938775510206	219.0	1.5228925270464063E12	1.522892527072E12	726.5625	23808.0	0.0	0.0	
-1.3740458015267174	-50.0	0.7633587786259541	90.0	1.3435114503816794	-88.0	0.012048192771084338	1283.0	9.204819277108435	2046.0	0.012048192771084338	2046.0	-0.4218181818181818	464.0	-0.023636363636363636	-26.0	-0.22653061224489798	222.0	1.5228925270503125E12	1.522892527073E12	730.46875	23936.0	0.0	0.0	
-1.2366412213740459	-62.0	0.9465648854961831	81.0	1.4045801526717556	-92.0	-0.024096385542168676	1285.0	9.180722891566266	2049.0	0.03614457831325302	2044.0	-0.41909090909090907	461.0	-0.023636363636363636	-26.0	-0.22755102040816327	223.0	1.5228925270542188E12	1.522892527074E12	734.375	24064.0	0.0	0.0	
-1.5572519083969465	-45.0	0.6870229007633587	102.0	1.2519083969465647	-82.0	-0.0963855421686747	1285.0	9.180722891566266	2055.0	0.03614457831325302	2044.0	-0.41909090909090907	461.0	-0.023636363636363636	-26.0	-0.22755102040816327	223.0	1.522892527058125E12	1.522892527075E12	738.28125	24192.0	0.0	0.0	
-1.1755725190839694	-48.0	0.732824427480916	77.0	1.3129770992366412	-86.0	-0.12048192771084337	1283.0	9.204819277108435	2057.0	0.060240963855421686	2042.0	-0.4254545454545455	468.0	-0.017272727272727273	-19.0	-0.22448979591836737	220.0	1.5228925270620313E12	1.522892527077E12	742.1875	24320.0	0.0	0.0	
-1.2213740458015268	-44.0	0.6717557251908397	80.0	1.450381679389313	-95.0	-0.13253012048192772	1283.0	9.204819277108435	2058.0	0.07228915662650603	2041.0	-0.42363636363636364	466.0	-0.024545454545454544	-27.0	-0.22755102040816327	223.0	1.5228925270659375E12	1.522892527078E12	746.09375	24448.0	0.0	0.0	
-1.2366412213740459	-49.0	0.7480916030534351	81.0	1.4961832061068703	-98.0	-0.12048192771084337	1285.0	9.180722891566266	2057.0	0.0963855421686747	2039.0	-0.41909090909090907	461.0	-0.026363636363636363	-29.0	-0.2285714285714286	224.0	1.5228925270698438E12	1.522892527079E12	750.0	24576.0	0.0	0.0	
-1.1603053435114503	-34.0	0.5190839694656488	76.0	1.6946564885496183	-111.0	-0.08433734939759037	1286.0	9.168674698795181	2054.0	0.12048192771084337	2037.0	-0.41545454545454547	457.0	0.0018181818181818182	2.0	-0.2285714285714286	224.0	1.52289252707375E12	1.522892527083E12	753.90625	24704.0	0.0	0.0	
-1.099236641221374	-39.0	0.5954198473282443	72.0	1.648854961832061	-108.0	-0.012048192771084338	1284.0	9.19277108433735	2048.0	0.10843373493975904	2038.0	-0.42363636363636364	466.0	-0.01	-11.0	-0.22346938775510206	219.0	1.5228925270776563E12	1.522892527084E12	757.8125	24832.0	0.0	0.0	
-1.2213740458015268	-28.0	0.42748091603053434	80.0	1.6335877862595418	-107.0	0.03614457831325302	1284.0	9.19277108433735	2044.0	0.0963855421686747	2039.0	-0.41909090909090907	461.0	-0.023636363636363636	-26.0	-0.2306122448979592	226.0	1.5228925270815625E12	1.522892527085E12	761.71875	24960.0	0.0	0.0	
-1.2671755725190839	-41.0	0.6259541984732824	83.0	1.6030534351145038	-105.0	0.03614457831325302	1283.0	9.204819277108435	2044.0	0.0963855421686747	2039.0	-0.41909090909090907	461.0	-0.023636363636363636	-26.0	-0.2306122448979592	226.0	1.5228925270854688E12	1.5228925271E12	765.625	25088.0	0.0	0.0	
-1.0534351145038168	-43.0	0.6564885496183206	69.0	1.5725190839694656	-103.0	0.0	1284.0	9.19277108433735	2047.0	0.08433734939759037	2040.0	-0.42454545454545456	467.0	-0.013636363636363636	-15.0	-0.22448979591836737	220.0	1.522892527089375E12	1.522892527101E12	769.53125	25216.0	0.0	0.0	
-1.1755725190839694	-31.0	0.47328244274809156	77.0	1.3587786259541985	-89.0	-0.024096385542168676	1284.0	9.19277108433735	2049.0	0.08433734939759037	2040.0	-0.41909090909090907	461.0	-0.023636363636363636	-26.0	-0.2295918367346939	225.0	1.5228925270932813E12	1.522892527103E12	773.4375	25344.0	0.0	0.0	
-1.2366412213740459	-32.0	0.48854961832061067	81.0	1.450381679389313	-95.0	-0.04819277108433735	1284.0	9.19277108433735	2051.0	0.0963855421686747	2039.0	-0.4218181818181818	464.0	-0.02181818181818182	-24.0	-0.22142857142857145	217.0	1.5228925270971875E12	1.522892527107E12	777.34375	25472.0	0.0	0.0	
-1.0381679389312977	-20.0	0.3053435114503817	68.0	1.5877862595419847	-104.0	-0.024096385542168676	1283.0	9.204819277108435	2049.0	0.08433734939759037	2040.0	-0.42363636363636364	466.0	-0.016363636363636365	-18.0	-0.22653061224489798	222.0	1.5228925271010938E12	1.522892527109E12	781.25	25600.0	0.0	0.0	
-0.9618320610687022	-31.0	0.47328244274809156	63.0	1.4961832061068703	-98.0	0.07228915662650603	1285.0	9.180722891566266	2041.0	0.060240963855421686	2042.0	-0.4218181818181818	464.0	-0.01818181818181818	-20.0	-0.2295918367346939	225.0	1.522892527105E12	1.52289252711E12	785.15625	25728.0	0.0	0.0	
-1.1450381679389312	-29.0	0.4427480916030534	75.0	1.618320610687023	-106.0	0.13253012048192772	1283.0	9.204819277108435	2036.0	0.03614457831325302	2044.0	-0.4209090909090909	463.0	-0.012727272727272728	-14.0	-0.2306122448979592	226.0	1.5228925271089063E12	1.52289252712E12	789.0625	25856.0	0.0	0.0	
-1.114503816793893	-41.0	0.6259541984732824	73.0	1.5419847328244274	-101.0	0.13253012048192772	1284.0	9.19277108433735	2036.0	0.012048192771084338	2046.0	-0.4209090909090909	463.0	-0.012727272727272728	-14.0	-0.2306122448979592	226.0	1.5228925271128125E12	1.522892527121E12	792.96875	25984.0	0.0	0.0	
-0.9312977099236641	-38.0	0.5801526717557252	61.0	1.4351145038167938	-94.0	0.0963855421686747	1287.0	9.156626506024097	2039.0	-0.012048192771084338	2048.0	-0.41363636363636364	455.0	-0.022727272727272728	-25.0	-0.22448979591836737	220.0	1.5228925271167188E12	1.522892527122E12	796.875	26112.0	0.0	0.0	
-1.1450381679389312	-31.0	0.47328244274809156	75.0	1.4045801526717556	-92.0	0.0963855421686747	1282.0	9.216867469879519	2039.0	-0.012048192771084338	2048.0	-0.41818181818181815	460.0	-0.02	-22.0	-0.22653061224489798	222.0	1.522892527120625E12	1.522892527131E12	800.78125	26240.0	0.0	0.0	
-1.3435114503816794	-39.0	0.5954198473282443	88.0	1.282442748091603	-84.0	0.13253012048192772	1284.0	9.19277108433735	2036.0	-0.024096385542168676	2049.0	-0.4163636363636364	458.0	-0.016363636363636365	-18.0	-0.2295918367346939	225.0	1.5228925271245313E12	1.522892527132E12	804.6875	26368.0	0.0	0.0	
-1.2671755725190839	-37.0	0.564885496183206	83.0	1.465648854961832	-96.0	0.14457831325301207	1284.0	9.19277108433735	2035.0	-0.03614457831325302	2050.0	-0.42272727272727273	465.0	-0.016363636363636365	-18.0	-0.22448979591836737	220.0	1.5228925271284375E12	1.522892527134E12	808.59375	26496.0	0.0	0.0	
-1.3282442748091603	-32.0	0.48854961832061067	87.0	1.3129770992366412	-86.0	0.16867469879518074	1283.0	9.204819277108435	2033.0	-0.03614457831325302	2050.0	-0.42	462.0	-0.016363636363636365	-18.0	-0.22346938775510206	219.0	1.5228925271323438E12	1.522892527145E12	812.5	26624.0	0.0	0.0	
-1.0229007633587786	-58.0	0.8854961832061068	67.0	1.3435114503816794	-88.0	0.10843373493975904	1284.0	9.19277108433735	2038.0	-0.04819277108433735	2051.0	-0.41454545454545455	456.0	-0.01818181818181818	-20.0	-0.22653061224489798	222.0	1.52289252713625E12	1.522892527146E12	816.40625	26752.0	0.0	0.0	
-1.0687022900763359	-51.0	0.7786259541984732	70.0	1.3129770992366412	-86.0	0.10843373493975904	1283.0	9.204819277108435	2038.0	-0.07228915662650603	2053.0	-0.41454545454545455	456.0	-0.01818181818181818	-20.0	-0.22653061224489798	222.0	1.5228925271401563E12	1.522892527147E12	820.3125	26880.0	0.0	0.0	
-1.0381679389312977	-53.0	0.8091603053435115	68.0	1.2061068702290076	-79.0	0.10843373493975904	1283.0	9.204819277108435	2038.0	-0.08433734939759037	2054.0	-0.42454545454545456	467.0	-0.017272727272727273	-19.0	-0.22346938775510206	219.0	1.5228925271440625E12	1.522892527155E12	824.21875	27008.0	0.0	0.0	
-1.0229007633587786	-58.0	0.8854961832061068	67.0	1.1908396946564885	-78.0	0.08433734939759037	1283.0	9.204819277108435	2040.0	-0.04819277108433735	2051.0	-0.4218181818181818	464.0	-0.024545454545454544	-27.0	-0.2295918367346939	225.0	1.5228925271479688E12	1.522892527156E12	828.125	27136.0	0.0	0.0	
-1.3435114503816794	-62.0	0.9465648854961831	88.0	1.129770992366412	-74.0	0.060240963855421686	1284.0	9.19277108433735	2042.0	-0.04819277108433735	2051.0	-0.41818181818181815	460.0	-0.01	-11.0	-0.22755102040816327	223.0	1.522892527151875E12	1.52289252716E12	832.03125	27264.0	0.0	0.0	
-1.465648854961832	-66.0	1.0076335877862594	96.0	1.3893129770992365	-91.0	0.04819277108433735	1284.0	9.19277108433735	2043.0	-0.024096385542168676	2049.0	-0.42363636363636364	466.0	-0.01818181818181818	-20.0	-0.22244897959183677	218.0	1.5228925271557813E12	1.522892527169E12	835.9375	27392.0	0.0	0.0	
-1.3893129770992365	-54.0	0.8244274809160305	91.0	1.2213740458015268	-80.0	-0.012048192771084338	1283.0	9.204819277108435	2048.0	0.012048192771084338	2046.0	-0.42	462.0	-0.025454545454545455	-28.0	-0.2295918367346939	225.0	1.5228925271596875E12	1.522892527169E12	839.84375	27520.0	0.0	0.0	
-1.1450381679389312	-54.0	0.8244274809160305	75.0	1.114503816793893	-73.0	-0.04819277108433735	1284.0	9.19277108433735	2051.0	0.024096385542168676	2045.0	-0.41909090909090907	461.0	-0.00909090909090909	-10.0	-0.22653061224489798	222.0	1.5228925271635938E12	1.52289252717E12	843.75	27648.0	0.0	0.0	
-1.2671755725190839	-47.0	0.7175572519083969	83.0	0.9923664122137404	-65.0	-0.04819277108433735	1285.0	9.180722891566266	2051.0	0.03614457831325302	2044.0	-0.41909090909090907	461.0	-0.00909090909090909	-10.0	-0.22653061224489798	222.0	1.5228925271675E12	1.522892527179E12	847.65625	27776.0	0.0	0.0	
-1.3282442748091603	-60.0	0.916030534351145	87.0	1.129770992366412	-74.0	-0.07228915662650603	1285.0	9.180722891566266	2053.0	0.060240963855421686	2042.0	-0.41454545454545455	456.0	-0.024545454545454544	-27.0	-0.22653061224489798	222.0	1.5228925271714063E12	1.52289252718E12	851.5625	27904.0	0.0	0.0	
-1.3435114503816794	-56.0	0.8549618320610687	88.0	1.2366412213740459	-81.0	-0.08433734939759037	1285.0	9.180722891566266	2054.0	0.060240963855421686	2042.0	-0.4254545454545455	468.0	-0.016363636363636365	-18.0	-0.22346938775510206	219.0	1.5228925271753125E12	1.52289252718E12	855.46875	28032.0	0.0	0.0	
-1.465648854961832	-55.0	0.8396946564885496	96.0	1.2213740458015268	-80.0	-0.12048192771084337	1284.0	9.19277108433735	2057.0	0.07228915662650603	2041.0	-0.4209090909090909	463.0	-0.01090909090909091	-12.0	-0.2285714285714286	224.0	1.5228925271792188E12	1.522892527205E12	859.375	28160.0	0.0	0.0	
-1.297709923664122	-60.0	0.916030534351145	85.0	1.3893129770992365	-91.0	-0.13253012048192772	1284.0	9.19277108433735	2058.0	0.10843373493975904	2038.0	-0.41363636363636364	455.0	-0.008181818181818182	-9.0	-0.23163265306122452	227.0	1.522892527183125E12	1.522892527207E12	863.28125	28288.0	0.0	0.0	
-1.3740458015267174	-48.0	0.732824427480916	90.0	1.3435114503816794	-88.0	-0.1566265060240964	1285.0	9.180722891566266	2060.0	0.13253012048192772	2036.0	-0.42454545454545456	467.0	-0.01818181818181818	-20.0	-0.22142857142857145	217.0	1.5228925271870313E12	1.522892527209E12	867.1875	28416.0	0.0	0.0	
-1.465648854961832	-36.0	0.549618320610687	96.0	1.3893129770992365	-91.0	-0.18072289156626506	1285.0	9.180722891566266	2062.0	0.1566265060240964	2034.0	-0.42454545454545456	467.0	-0.011818181818181818	-13.0	-0.2295918367346939	225.0	1.5228925271909375E12	1.52289252721E12	871.09375	28544.0	0.0	0.0	
-1.2366412213740459	-27.0	0.41221374045801523	81.0	1.5419847328244274	-101.0	-0.18072289156626506	1285.0	9.180722891566266	2062.0	0.16867469879518074	2033.0	-0.41909090909090907	461.0	-0.011818181818181818	-13.0	-0.2295918367346939	225.0	1.5228925271948438E12	1.522892527215E12	875.0	28672.0	0.0	0.0	
-1.114503816793893	-31.0	0.47328244274809156	73.0	1.465648854961832	-96.0	-0.14457831325301207	1286.0	9.168674698795181	2059.0	0.16867469879518074	2033.0	-0.42363636363636364	466.0	-0.024545454545454544	-27.0	-0.2285714285714286	224.0	1.52289252719875E12	1.522892527215E12	878.90625	28800.0	0.0	0.0	
-1.0687022900763359	-20.0	0.3053435114503817	70.0	1.5572519083969465	-102.0	-0.0963855421686747	1285.0	9.180722891566266	2055.0	0.14457831325301207	2035.0	-0.4254545454545455	468.0	-0.02	-22.0	-0.2295918367346939	225.0	1.5228925272026563E12	1.522892527217E12	882.8125	28928.0	0.0	0.0	
-1.1603053435114503	-17.0	0.2595419847328244	76.0	1.6030534351145038	-105.0	-0.012048192771084338	1284.0	9.19277108433735	2048.0	0.1566265060240964	2034.0	-0.4209090909090909	463.0	-0.013636363636363636	-15.0	-0.2326530612244898	228.0	1.5228925272065625E12	1.522892527217E12	886.71875	29056.0	0.0	0.0	
-1.2213740458015268	-18.0	0.2748091603053435	80.0	1.6030534351145038	-105.0	0.024096385542168676	1285.0	9.180722891566266	2045.0	0.13253012048192772	2036.0	-0.42363636363636364	466.0	-0.023636363636363636	-26.0	-0.22551020408163266	221.0	1.5228925272104688E12	1.522892527218E12	890.625	29184.0	0.0	0.0	
-1.099236641221374	-26.0	0.3969465648854962	72.0	1.4351145038167938	-94.0	0.012048192771084338	1284.0	9.19277108433735	2046.0	0.12048192771084337	2037.0	-0.41818181818181815	460.0	-0.02	-22.0	-0.23163265306122452	227.0	1.522892527214375E12	1.522892527226E12	894.53125	29312.0	0.0	0.0	
-1.0076335877862594	-28.0	0.42748091603053434	66.0	1.5572519083969465	-102.0	-0.03614457831325302	1283.0	9.204819277108435	2050.0	0.08433734939759037	2040.0	-0.41818181818181815	460.0	-0.02	-22.0	-0.23163265306122452	227.0	1.5228925272182813E12	1.522892527227E12	898.4375	29440.0	0.0	0.0	
-1.0229007633587786	-22.0	0.33587786259541985	67.0	1.5572519083969465	-102.0	-0.08433734939759037	1285.0	9.180722891566266	2054.0	0.08433734939759037	2040.0	-0.4254545454545455	468.0	-0.014545454545454545	-16.0	-0.2295918367346939	225.0	1.5228925272221875E12	1.522892527228E12	902.34375	29568.0	0.0	0.0	
-0.9007633587786259	-26.0	0.3969465648854962	59.0	1.4961832061068703	-98.0	-0.060240963855421686	1284.0	9.19277108433735	2052.0	0.060240963855421686	2042.0	-0.4172727272727273	459.0	-0.006363636363636364	-7.0	-0.21836734693877552	214.0	1.5228925272260938E12	1.522892527236E12	906.25	29696.0	0.0	0.0	
-1.1603053435114503	-20.0	0.3053435114503817	76.0	1.66412213740458	-109.0	0.03614457831325302	1284.0	9.19277108433735	2044.0	0.04819277108433735	2043.0	-0.4163636363636364	458.0	-0.014545454545454545	-16.0	-0.22346938775510206	219.0	1.52289252723E12	1.522892527237E12	910.15625	29824.0	0.0	0.0	
-0.732824427480916	-32.0	0.48854961832061067	48.0	1.7099236641221374	-112.0	0.1566265060240964	1285.0	9.180722891566266	2034.0	0.03614457831325302	2044.0	-0.41909090909090907	461.0	-0.012727272727272728	-14.0	-0.22653061224489798	222.0	1.5228925272339063E12	1.522892527237E12	914.0625	29952.0	0.0	0.0	
-0.7175572519083969	-37.0	0.564885496183206	47.0	1.6030534351145038	-105.0	0.14457831325301207	1284.0	9.19277108433735	2035.0	0.024096385542168676	2045.0	-0.42363636363636364	466.0	-0.023636363636363636	-26.0	-0.2285714285714286	224.0	1.5228925272378125E12	1.522892527249E12	917.96875	30080.0	0.0	0.0	
-1.2519083969465647	-40.0	0.6106870229007634	82.0	1.3282442748091603	-87.0	0.0963855421686747	1283.0	9.204819277108435	2039.0	-0.012048192771084338	2048.0	-0.41909090909090907	461.0	-0.024545454545454544	-27.0	-0.2306122448979592	226.0	1.5228925272417188E12	1.522892527249E12	921.875	30208.0	0.0	0.0	
-1.0381679389312977	-36.0	0.549618320610687	68.0	1.3435114503816794	-88.0	0.03614457831325302	1282.0	9.216867469879519	2044.0	-0.03614457831325302	2050.0	-0.41909090909090907	461.0	-0.024545454545454544	-27.0	-0.2306122448979592	226.0	1.522892527245625E12	1.52289252725E12	925.78125	30336.0	0.0	0.0	
-1.1450381679389312	-52.0	0.7938931297709924	75.0	1.4198473282442747	-93.0	-0.012048192771084338	1283.0	9.204819277108435	2048.0	-0.024096385542168676	2049.0	-0.42272727272727273	465.0	-0.008181818181818182	-9.0	-0.22653061224489798	222.0	1.5228925272495313E12	1.522892527263E12	929.6875	30464.0	0.0	0.0	
-1.099236641221374	-42.0	0.6412213740458015	72.0	1.3587786259541985	-89.0	-0.024096385542168676	1283.0	9.204819277108435	2049.0	0.0	2047.0	-0.4254545454545455	468.0	-0.025454545454545455	-28.0	-0.2306122448979592	226.0	1.5228925272534375E12	1.522892527265E12	933.59375	30592.0	0.0	0.0	
-1.114503816793893	-44.0	0.6717557251908397	73.0	1.5725190839694656	-103.0	-0.012048192771084338	1285.0	9.180722891566266	2048.0	0.024096385542168676	2045.0	-0.4172727272727273	459.0	-0.013636363636363636	-15.0	-0.22755102040816327	223.0	1.5228925272573438E12	1.522892527266E12	937.5	30720.0	0.0	0.0	
-1.129770992366412	-40.0	0.6106870229007634	74.0	1.6030534351145038	-105.0	0.060240963855421686	1285.0	9.180722891566266	2042.0	0.03614457831325302	2044.0	-0.4218181818181818	464.0	-0.011818181818181818	-13.0	-0.22653061224489798	222.0	1.52289252726125E12	1.522892527267E12	941.40625	30848.0	0.0	0.0	
-0.9465648854961831	-48.0	0.732824427480916	62.0	1.618320610687023	-106.0	0.08433734939759037	1286.0	9.168674698795181	2040.0	0.024096385542168676	2045.0	-0.4218181818181818	464.0	-0.006363636363636364	-7.0	-0.22448979591836737	220.0	1.5228925272651563E12	1.522892527268E12	945.3125	30976.0	0.0	0.0	
-1.0534351145038168	-37.0	0.564885496183206	69.0	1.5572519083969465	-102.0	0.08433734939759037	1285.0	9.180722891566266	2040.0	0.012048192771084338	2046.0	-0.4163636363636364	458.0	-0.016363636363636365	-18.0	-0.2295918367346939	225.0	1.5228925272690625E12	1.522892527273E12	949.21875	31104.0	0.0	0.0	
-1.0534351145038168	-43.0	0.6564885496183206	69.0	1.3587786259541985	-89.0	0.04819277108433735	1284.0	9.19277108433735	2043.0	0.0	2047.0	-0.4163636363636364	458.0	-0.016363636363636365	-18.0	-0.2295918367346939	225.0	1.5228925272729688E12	1.522892527286E12	953.125	31232.0	0.0	0.0	
-1.0229007633587786	-39.0	0.5954198473282443	67.0	1.3893129770992365	-91.0	0.0	1283.0	9.204819277108435	2047.0	0.024096385542168676	2045.0	-0.41909090909090907	461.0	-0.011818181818181818	-13.0	-0.22653061224489798	222.0	1.522892527276875E12	1.522892527287E12	957.03125	31360.0	0.0	0.0	
-1.099236641221374	-48.0	0.732824427480916	72.0	0.9007633587786259	-59.0	-0.03614457831325302	1282.0	9.216867469879519	2050.0	0.060240963855421686	2042.0	-0.42363636363636364	466.0	-0.019090909090909092	-21.0	-0.22346938775510206	219.0	1.5228925272807813E12	1.522892527288E12	960.9375	31488.0	0.0	0.0	
-1.1450381679389312	-40.0	0.6106870229007634	75.0	1.3129770992366412	-86.0	-0.10843373493975904	1283.0	9.204819277108435	2056.0	0.07228915662650603	2041.0	-0.4163636363636364	458.0	-0.02	-22.0	-0.2306122448979592	226.0	1.5228925272846875E12	1.5228925273E12	964.84375	31616.0	0.0	0.0	
-1.0229007633587786	-36.0	0.549618320610687	67.0	1.2671755725190839	-83.0	-0.0963855421686747	1284.0	9.19277108433735	2055.0	0.10843373493975904	2038.0	-0.41454545454545455	456.0	-0.00909090909090909	-10.0	-0.22551020408163266	221.0	1.5228925272885938E12	1.522892527301E12	968.75	31744.0	0.0	0.0	
-1.0381679389312977	-46.0	0.7022900763358778	68.0	1.297709923664122	-85.0	-0.060240963855421686	1286.0	9.168674698795181	2052.0	0.1566265060240964	2034.0	-0.42454545454545456	467.0	-0.026363636363636363	-29.0	-0.2306122448979592	226.0	1.5228925272925E12	1.522892527301E12	972.65625	31872.0	0.0	0.0	
-0.9007633587786259	-39.0	0.5954198473282443	59.0	1.465648854961832	-96.0	0.0	1286.0	9.168674698795181	2047.0	0.13253012048192772	2036.0	-0.41909090909090907	461.0	-0.025454545454545455	-28.0	-0.2306122448979592	226.0	1.5228925272964063E12	1.522892527303E12	976.5625	32000.0	0.0	0.0	
-0.7175572519083969	-44.0	0.6717557251908397	47.0	1.4045801526717556	-92.0	0.04819277108433735	1284.0	9.19277108433735	2043.0	0.12048192771084337	2037.0	-0.41909090909090907	461.0	-0.025454545454545455	-28.0	-0.2306122448979592	226.0	1.5228925273003125E12	1.522892527304E12	980.46875	32128.0	0.0	0.0	
-0.9007633587786259	-40.0	0.6106870229007634	59.0	1.2213740458015268	-80.0	0.024096385542168676	1284.0	9.19277108433735	2045.0	0.0963855421686747	2039.0	-0.41545454545454547	457.0	-0.008181818181818182	-9.0	-0.22346938775510206	219.0	1.5228925273042188E12	1.522892527305E12	984.375	32256.0	0.0	0.0	
-0.8854961832061068	-49.0	0.7480916030534351	58.0	1.3893129770992365	-91.0	-0.04819277108433735	1284.0	9.19277108433735	2051.0	0.12048192771084337	2037.0	-0.42454545454545456	467.0	-0.023636363636363636	-26.0	-0.22653061224489798	222.0	1.522892527308125E12	1.522892527311E12	988.28125	32384.0	0.0	0.0	
-1.083969465648855	-39.0	0.5954198473282443	71.0	1.3893129770992365	-91.0	-0.060240963855421686	1285.0	9.180722891566266	2052.0	0.0963855421686747	2039.0	-0.42	462.0	-0.024545454545454544	-27.0	-0.22653061224489798	222.0	1.5228925273120313E12	1.522892527324E12	992.1875	32512.0	0.0	0.0	
-1.0076335877862594	-22.0	0.33587786259541985	66.0	1.4045801526717556	-92.0	-0.07228915662650603	1285.0	9.180722891566266	2053.0	0.12048192771084337	2037.0	-0.42454545454545456	467.0	-0.015454545454545455	-17.0	-0.22551020408163266	221.0	1.5228925273159375E12	1.522892527325E12	996.09375	32640.0	0.0	0.0	
-0.8091603053435115	-20.0	0.3053435114503817	53.0	1.5267175572519083	-100.0	0.0	1283.0	9.204819277108435	2047.0	0.10843373493975904	2038.0	-0.41909090909090907	461.0	-0.02181818181818182	-24.0	-0.2295918367346939	225.0	1.5228925273198438E12	1.522892527356E12	1000.0	32768.0	0.0	0.0	
-0.7938931297709924	-13.0	0.1984732824427481	52.0	1.5267175572519083	-100.0	0.08433734939759037	1285.0	9.180722891566266	2040.0	0.0963855421686747	2039.0	-0.41909090909090907	461.0	-0.02	-22.0	-0.2285714285714286	224.0	1.52289252732375E12	1.522892527358E12	1003.90625	32896.0	0.0	0.0	
-0.732824427480916	-23.0	0.3511450381679389	48.0	1.4809160305343512	-97.0	0.13253012048192772	1283.0	9.204819277108435	2036.0	0.04819277108433735	2043.0	-0.41909090909090907	461.0	-0.02	-22.0	-0.2285714285714286	224.0	1.5228925273276563E12	1.52289252736E12	1007.8125	33024.0	0.0	0.0	
-0.5801526717557252	-44.0	0.6717557251908397	38.0	1.2061068702290076	-79.0	0.13253012048192772	1284.0	9.19277108433735	2036.0	0.0	2047.0	-0.42272727272727273	465.0	-0.01818181818181818	-20.0	-0.22551020408163266	221.0	1.5228925273315625E12	1.522892527361E12	1011.71875	33152.0	0.0	0.0	
-0.7022900763358778	-40.0	0.6106870229007634	46.0	1.3435114503816794	-88.0	0.07228915662650603	1283.0	9.204819277108435	2041.0	-0.060240963855421686	2052.0	-0.42	462.0	-0.019090909090909092	-21.0	-0.2285714285714286	224.0	1.5228925273354688E12	1.522892527366E12	1015.625	33280.0	0.0	0.0	
-0.9007633587786259	-51.0	0.7786259541984732	59.0	1.1450381679389312	-75.0	0.03614457831325302	1283.0	9.204819277108435	2044.0	-0.07228915662650603	2053.0	-0.42	462.0	-0.025454545454545455	-28.0	-0.2285714285714286	224.0	1.522892527339375E12	1.522892527367E12	1019.53125	33408.0	0.0	0.0	
-0.8091603053435115	-47.0	0.7175572519083969	53.0	1.3435114503816794	-88.0	0.03614457831325302	1284.0	9.19277108433735	2044.0	-0.07228915662650603	2053.0	-0.42363636363636364	466.0	-0.014545454545454545	-16.0	-0.22244897959183677	218.0	1.5228925273432813E12	1.522892527368E12	1023.4375	33536.0	0.0	0.0	
-0.8396946564885496	-36.0	0.549618320610687	55.0	1.3740458015267174	-90.0	0.060240963855421686	1284.0	9.19277108433735	2042.0	-0.03614457831325302	2050.0	-0.41818181818181815	460.0	-0.02727272727272727	-30.0	-0.23163265306122452	227.0	1.5228925273471875E12	1.522892527369E12	1027.34375	33664.0	0.0	0.0	
-1.114503816793893	-50.0	0.7633587786259541	73.0	1.3435114503816794	-88.0	0.060240963855421686	1285.0	9.180722891566266	2042.0	0.012048192771084338	2046.0	-0.41818181818181815	460.0	-0.011818181818181818	-13.0	-0.2295918367346939	225.0	1.5228925273510938E12	1.52289252737E12	1031.25	33792.0	0.0	0.0	
-0.9770992366412213	-50.0	0.7633587786259541	64.0	1.282442748091603	-84.0	0.024096385542168676	1284.0	9.19277108433735	2045.0	0.012048192771084338	2046.0	-0.41909090909090907	461.0	-0.011818181818181818	-13.0	-0.2295918367346939	225.0	1.522892527355E12	1.522892527371E12	1035.15625	33920.0	0.0	0.0	
-0.8244274809160305	-50.0	0.7633587786259541	54.0	1.099236641221374	-72.0	0.0	1284.0	9.19277108433735	2047.0	0.012048192771084338	2046.0	-0.4209090909090909	463.0	-0.014545454545454545	-16.0	-0.22448979591836737	220.0	1.5228925273589063E12	1.522892527373E12	1039.0625	34048.0	0.0	0.0	
-1.0076335877862594	-46.0	0.7022900763358778	66.0	1.3740458015267174	-90.0	-0.04819277108433735	1283.0	9.204819277108435	2051.0	-0.012048192771084338	2048.0	-0.41818181818181815	460.0	-0.026363636363636363	-29.0	-0.2295918367346939	225.0	1.5228925273628125E12	1.522892527374E12	1042.96875	34176.0	0.0	0.0	
-0.7938931297709924	-60.0	0.916030534351145	52.0	1.3740458015267174	-90.0	-0.060240963855421686	1283.0	9.204819277108435	2052.0	0.012048192771084338	2046.0	-0.4172727272727273	459.0	-0.007272727272727273	-8.0	-0.22653061224489798	222.0	1.5228925273667188E12	1.522892527375E12	1046.875	34304.0	0.0	0.0	
-0.9923664122137404	-33.0	0.5038167938931297	65.0	1.4045801526717556	-92.0	-0.060240963855421686	1284.0	9.19277108433735	2052.0	0.012048192771084338	2046.0	-0.41363636363636364	455.0	-0.015454545454545455	-17.0	-0.22346938775510206	219.0	1.522892527370625E12	1.522892527381E12	1050.78125	34432.0	0.0	0.0	
-0.916030534351145	-32.0	0.48854961832061067	60.0	1.3282442748091603	-87.0	-0.060240963855421686	1285.0	9.180722891566266	2052.0	0.07228915662650603	2041.0	-0.4218181818181818	464.0	-0.022727272727272728	-25.0	-0.22755102040816327	223.0	1.5228925273745313E12	1.522892527382E12	1054.6875	34560.0	0.0	0.0	
-1.0381679389312977	-51.0	0.7786259541984732	68.0	1.2671755725190839	-83.0	-0.04819277108433735	1285.0	9.180722891566266	2051.0	0.08433734939759037	2040.0	-0.4218181818181818	464.0	-0.022727272727272728	-25.0	-0.22755102040816327	223.0	1.5228925273784375E12	1.522892527383E12	1058.59375	34688.0	0.0	0.0	
-1.0076335877862594	-46.0	0.7022900763358778	66.0	1.3893129770992365	-91.0	-0.060240963855421686	1285.0	9.180722891566266	2052.0	0.12048192771084337	2037.0	-0.4072727272727273	448.0	-0.0018181818181818182	-2.0	-0.22346938775510206	219.0	1.5228925273823438E12	1.522892527393E12	1062.5	34816.0	0.0	0.0	
-0.9465648854961831	-44.0	0.6717557251908397	62.0	1.3435114503816794	-88.0	-0.07228915662650603	1285.0	9.180722891566266	2053.0	0.13253012048192772	2036.0	-0.4118181818181818	453.0	-0.012727272727272728	-14.0	-0.22448979591836737	220.0	1.52289252738625E12	1.522892527394E12	1066.40625	34944.0	0.0	0.0	
-0.8702290076335878	-50.0	0.7633587786259541	57.0	1.5267175572519083	-100.0	-0.13253012048192772	1283.0	9.204819277108435	2058.0	0.12048192771084337	2037.0	-0.4209090909090909	463.0	-0.025454545454545455	-28.0	-0.2306122448979592	226.0	1.5228925273901563E12	1.522892527395E12	1070.3125	35072.0	0.0	0.0	
-0.7480916030534351	-46.0	0.7022900763358778	49.0	1.3893129770992365	-91.0	-0.14457831325301207	1284.0	9.19277108433735	2059.0	0.12048192771084337	2037.0	-0.41818181818181815	460.0	-0.011818181818181818	-13.0	-0.22653061224489798	222.0	1.5228925273940625E12	1.522892527403E12	1074.21875	35200.0	0.0	0.0	
-0.8091603053435115	-24.0	0.366412213740458	53.0	1.4198473282442747	-93.0	-0.13253012048192772	1284.0	9.19277108433735	2058.0	0.10843373493975904	2038.0	-0.42272727272727273	465.0	-0.017272727272727273	-19.0	-0.22551020408163266	221.0	1.5228925273979688E12	1.522892527404E12	1078.125	35328.0	0.0	0.0	
-0.9007633587786259	-32.0	0.48854961832061067	59.0	1.450381679389313	-95.0	-0.0963855421686747	1285.0	9.180722891566266	2055.0	0.10843373493975904	2038.0	-0.4218181818181818	464.0	-0.024545454545454544	-27.0	-0.23367346938775513	229.0	1.522892527401875E12	1.522892527405E12	1082.03125	35456.0	0.0	0.0	
-0.8549618320610687	-38.0	0.5801526717557252	56.0	1.5877862595419847	-104.0	-0.10843373493975904	1286.0	9.168674698795181	2056.0	0.12048192771084337	2037.0	-0.4218181818181818	464.0	-0.024545454545454544	-27.0	-0.23367346938775513	229.0	1.5228925274057813E12	1.522892527416E12	1085.9375	35584.0	0.0	0.0	
-0.8854961832061068	-32.0	0.48854961832061067	58.0	1.6335877862595418	-107.0	-0.08433734939759037	1285.0	9.180722891566266	2054.0	0.12048192771084337	2037.0	-0.4090909090909091	450.0	-0.019090909090909092	-21.0	-0.22551020408163266	221.0	1.5228925274096875E12	1.522892527417E12	1089.84375	35712.0	0.0	0.0	
-0.5954198473282443	-27.0	0.41221374045801523	39.0	1.5419847328244274	-101.0	-0.0963855421686747	1285.0	9.180722891566266	2055.0	0.12048192771084337	2037.0	-0.4218181818181818	464.0	-0.019090909090909092	-21.0	-0.22346938775510206	219.0	1.5228925274135938E12	1.522892527419E12	1093.75	35840.0	0.0	0.0	
-0.9465648854961831	-34.0	0.5190839694656488	62.0	1.3893129770992365	-91.0	-0.0963855421686747	1285.0	9.180722891566266	2055.0	0.12048192771084337	2037.0	-0.42454545454545456	467.0	-0.019090909090909092	-21.0	-0.22346938775510206	219.0	1.5228925274175E12	1.522892527434E12	1097.65625	35968.0	0.0	0.0	
-0.7938931297709924	-25.0	0.38167938931297707	52.0	1.450381679389313	-95.0	-0.10843373493975904	1285.0	9.180722891566266	2056.0	0.08433734939759037	2040.0	-0.41818181818181815	460.0	-0.008181818181818182	-9.0	-0.22755102040816327	223.0	1.5228925274214063E12	1.522892527434E12	1101.5625	36096.0	0.0	0.0	
-0.732824427480916	-34.0	0.5190839694656488	48.0	1.648854961832061	-108.0	-0.07228915662650603	1284.0	9.19277108433735	2053.0	0.03614457831325302	2044.0	-0.4218181818181818	464.0	-0.023636363636363636	-26.0	-0.22346938775510206	219.0	1.5228925274253125E12	1.522892527435E12	1105.46875	36224.0	0.0	0.0	
-0.5343511450381679	-21.0	0.32061068702290074	35.0	1.5877862595419847	-104.0	-0.03614457831325302	1284.0	9.19277108433735	2050.0	0.024096385542168676	2045.0	-0.42	462.0	-0.004545454545454545	-5.0	-0.22448979591836737	220.0	1.5228925274292188E12	1.522892527437E12	1109.375	36352.0	0.0	0.0	
-0.7022900763358778	-30.0	0.4580152671755725	46.0	1.7251908396946565	-113.0	0.07228915662650603	1284.0	9.19277108433735	2041.0	0.0	2047.0	-0.42	462.0	-0.004545454545454545	-5.0	-0.22448979591836737	220.0	1.522892527433125E12	1.522892527438E12	1113.28125	36480.0	0.0	0.0	
-0.732824427480916	-11.0	0.16793893129770993	48.0	1.618320610687023	-106.0	0.0963855421686747	1285.0	9.180722891566266	2039.0	0.012048192771084338	2046.0	-0.41818181818181815	460.0	-0.01090909090909091	-12.0	-0.22755102040816327	223.0	1.5228925274370313E12	1.52289252744E12	1117.1875	36608.0	0.0	0.0	
-0.9770992366412213	-28.0	0.42748091603053434	64.0	1.618320610687023	-106.0	0.07228915662650603	1284.0	9.19277108433735	2041.0	-0.024096385542168676	2049.0	-0.4209090909090909	463.0	-0.023636363636363636	-26.0	-0.22551020408163266	221.0	1.5228925274409375E12	1.52289252745E12	1121.09375	36736.0	0.0	0.0	
-0.7480916030534351	-24.0	0.366412213740458	49.0	1.5877862595419847	-104.0	0.03614457831325302	1283.0	9.204819277108435	2044.0	-0.03614457831325302	2050.0	-0.42	462.0	-0.025454545454545455	-28.0	-0.2285714285714286	224.0	1.5228925274448438E12	1.52289252745E12	1125.0	36864.0	0.0	0.0	
-0.8702290076335878	-40.0	0.6106870229007634	57.0	1.3893129770992365	-91.0	0.012048192771084338	1282.0	9.216867469879519	2046.0	-0.07228915662650603	2053.0	-0.42272727272727273	465.0	-0.016363636363636365	-18.0	-0.2306122448979592	226.0	1.52289252744875E12	1.522892527451E12	1128.90625	36992.0	0.0	0.0	
-0.916030534351145	-48.0	0.732824427480916	60.0	1.465648854961832	-96.0	0.0	1282.0	9.216867469879519	2047.0	-0.07228915662650603	2053.0	-0.42363636363636364	466.0	-0.026363636363636363	-29.0	-0.22448979591836737	220.0	1.5228925274526563E12	1.522892527465E12	1132.8125	37120.0	0.0	0.0	
-0.9770992366412213	-45.0	0.6870229007633587	64.0	1.4045801526717556	-92.0	0.024096385542168676	1283.0	9.204819277108435	2045.0	-0.060240963855421686	2052.0	-0.41818181818181815	460.0	-0.022727272727272728	-25.0	-0.2306122448979592	226.0	1.5228925274565625E12	1.522892527466E12	1136.71875	37248.0	0.0	0.0	
-0.916030534351145	-34.0	0.5190839694656488	60.0	1.618320610687023	-106.0	0.012048192771084338	1284.0	9.19277108433735	2046.0	-0.03614457831325302	2050.0	-0.41818181818181815	460.0	-0.022727272727272728	-25.0	-0.2306122448979592	226.0	1.5228925274604688E12	1.522892527467E12	1140.625	37376.0	0.0	0.0	
-0.8091603053435115	-60.0	0.916030534351145	53.0	1.2061068702290076	-79.0	0.012048192771084338	1284.0	9.19277108433735	2046.0	-0.012048192771084338	2048.0	-0.42	462.0	-0.017272727272727273	-19.0	-0.22755102040816327	223.0	1.522892527464375E12	1.522892527474E12	1144.53125	37504.0	0.0	0.0	
-0.9770992366412213	-49.0	0.7480916030534351	64.0	1.618320610687023	-106.0	-0.012048192771084338	1284.0	9.19277108433735	2048.0	0.0	2047.0	-0.42	462.0	-0.024545454545454544	-27.0	-0.22653061224489798	222.0	1.5228925274682813E12	1.522892527474E12	1148.4375	37632.0	0.0	0.0	
-0.8854961832061068	-53.0	0.8091603053435115	58.0	1.465648854961832	-96.0	-0.04819277108433735	1285.0	9.180722891566266	2051.0	0.024096385542168676	2045.0	-0.41818181818181815	460.0	-0.017272727272727273	-19.0	-0.2285714285714286	224.0	1.5228925274721875E12	1.522892527475E12	1152.34375	37760.0	0.0	0.0	
-0.8702290076335878	-33.0	0.5038167938931297	57.0	1.5877862595419847	-104.0	-0.07228915662650603	1286.0	9.168674698795181	2053.0	0.03614457831325302	2044.0	-0.42	462.0	-0.01	-11.0	-0.22755102040816327	223.0	1.5228925274760938E12	1.522892527508E12	1156.25	37888.0	0.0	0.0	
-0.9770992366412213	-31.0	0.47328244274809156	64.0	1.5572519083969465	-102.0	-0.0963855421686747	1286.0	9.168674698795181	2055.0	0.04819277108433735	2043.0	-0.4209090909090909	463.0	-0.007272727272727273	-8.0	-0.22551020408163266	221.0	1.52289252748E12	1.522892527509E12	1160.15625	38016.0	0.0	0.0	
-0.7022900763358778	-37.0	0.564885496183206	46.0	1.465648854961832	-96.0	-0.10843373493975904	1284.0	9.19277108433735	2056.0	0.03614457831325302	2044.0	-0.4209090909090909	463.0	-0.015454545454545455	-17.0	-0.2295918367346939	225.0	1.5228925274839063E12	1.52289252751E12	1164.0625	38144.0	0.0	0.0	
-0.9007633587786259	-28.0	0.42748091603053434	59.0	1.6030534351145038	-105.0	-0.0963855421686747	1285.0	9.180722891566266	2055.0	0.04819277108433735	2043.0	-0.4209090909090909	463.0	-0.015454545454545455	-17.0	-0.2295918367346939	225.0	1.5228925274878125E12	1.522892527511E12	1167.96875	38272.0	0.0	0.0	
-0.6259541984732824	-27.0	0.41221374045801523	41.0	1.5725190839694656	-103.0	-0.07228915662650603	1285.0	9.180722891566266	2053.0	0.04819277108433735	2043.0	-0.41909090909090907	461.0	-0.008181818181818182	-9.0	-0.22755102040816327	223.0	1.5228925274917188E12	1.522892527512E12	1171.875	38400.0	0.0	0.0	
-0.7022900763358778	-15.0	0.22900763358778625	46.0	1.5267175572519083	-100.0	-0.024096385542168676	1285.0	9.180722891566266	2049.0	0.03614457831325302	2044.0	-0.42272727272727273	465.0	-0.025454545454545455	-28.0	-0.22448979591836737	220.0	1.522892527495625E12	1.522892527513E12	1175.78125	38528.0	0.0	0.0	
-0.9465648854961831	-21.0	0.32061068702290074	62.0	1.66412213740458	-109.0	0.0	1283.0	9.204819277108435	2047.0	0.012048192771084338	2046.0	-0.4172727272727273	459.0	-0.026363636363636363	-29.0	-0.23163265306122452	227.0	1.5228925274995313E12	1.522892527515E12	1179.6875	38656.0	0.0	0.0	
-0.6870229007633587	-34.0	0.5190839694656488	45.0	1.4961832061068703	-98.0	-0.012048192771084338	1285.0	9.180722891566266	2048.0	0.012048192771084338	2046.0	-0.42	462.0	-0.01090909090909091	-12.0	-0.22653061224489798	222.0	1.5228925275034375E12	1.522892527515E12	1183.59375	38784.0	0.0	0.0	
-0.7480916030534351	-35.0	0.5343511450381679	49.0	1.450381679389313	-95.0	-0.07228915662650603	1283.0	9.204819277108435	2053.0	-0.012048192771084338	2048.0	-0.4254545454545455	468.0	-0.024545454545454544	-27.0	-0.22755102040816327	223.0	1.5228925275073438E12	1.522892527516E12	1187.5	38912.0	0.0	0.0	
-0.8702290076335878	-39.0	0.5954198473282443	57.0	1.5572519083969465	-102.0	-0.07228915662650603	1283.0	9.204819277108435	2053.0	0.0	2047.0	-0.4254545454545455	468.0	-0.024545454545454544	-27.0	-0.2285714285714286	224.0	1.52289252751125E12	1.522892527522E12	1191.40625	39040.0	0.0	0.0	
-0.9618320610687022	-26.0	0.3969465648854962	63.0	1.6793893129770991	-110.0	-0.04819277108433735	1283.0	9.204819277108435	2051.0	-0.012048192771084338	2048.0	-0.4218181818181818	464.0	-0.024545454545454544	-27.0	-0.2285714285714286	224.0	1.5228925275151563E12	1.522892527523E12	1195.3125	39168.0	0.0	0.0	
-0.8244274809160305	-26.0	0.3969465648854962	54.0	1.7251908396946565	-113.0	-0.03614457831325302	1282.0	9.216867469879519	2050.0	0.0	2047.0	-0.4218181818181818	464.0	-0.015454545454545455	-17.0	-0.22551020408163266	221.0	1.5228925275190625E12	1.522892527524E12	1199.21875	39296.0	0.0	0.0	
-0.916030534351145	-30.0	0.4580152671755725	60.0	1.5725190839694656	-103.0	-0.024096385542168676	1283.0	9.204819277108435	2049.0	0.012048192771084338	2046.0	-0.41454545454545455	456.0	-0.005454545454545455	-6.0	-0.2285714285714286	224.0	1.5228925275229688E12	1.52289252754E12	1203.125	39424.0	0.0	0.0	
-0.8549618320610687	-35.0	0.5343511450381679	56.0	1.5725190839694656	-103.0	0.0	1285.0	9.180722891566266	2047.0	0.012048192771084338	2046.0	-0.4172727272727273	459.0	-0.02181818181818182	-24.0	-0.2285714285714286	224.0	1.522892527526875E12	1.522892527541E12	1207.03125	39552.0	0.0	0.0	
-0.5954198473282443	-30.0	0.4580152671755725	39.0	1.6946564885496183	-111.0	0.024096385542168676	1284.0	9.19277108433735	2045.0	0.012048192771084338	2046.0	-0.42363636363636364	466.0	-0.015454545454545455	-17.0	-0.22244897959183677	218.0	1.5228925275307813E12	1.522892527541E12	1210.9375	39680.0	0.0	0.0	
-0.7786259541984732	-27.0	0.41221374045801523	51.0	1.6335877862595418	-107.0	0.012048192771084338	1284.0	9.19277108433735	2046.0	-0.024096385542168676	2049.0	-0.4218181818181818	464.0	-0.008181818181818182	-9.0	-0.22040816326530616	216.0	1.5228925275346875E12	1.522892527543E12	1214.84375	39808.0	0.0	0.0	
-0.9465648854961831	-34.0	0.5190839694656488	62.0	1.5419847328244274	-101.0	0.012048192771084338	1284.0	9.19277108433735	2046.0	-0.024096385542168676	2049.0	-0.4218181818181818	464.0	-0.008181818181818182	-9.0	-0.22040816326530616	216.0	1.5228925275385938E12	1.522892527544E12	1218.75	39936.0	0.0	0.0	
-0.732824427480916	-30.0	0.4580152671755725	48.0	1.4961832061068703	-98.0	0.012048192771084338	1284.0	9.19277108433735	2046.0	-0.024096385542168676	2049.0	-0.4127272727272727	454.0	-0.02181818181818182	-24.0	-0.22346938775510206	219.0	1.5228925275425E12	1.522892527545E12	1222.65625	40064.0	0.0	0.0	
-0.9770992366412213	-23.0	0.3511450381679389	64.0	1.6793893129770991	-110.0	-0.024096385542168676	1284.0	9.19277108433735	2049.0	0.0	2047.0	-0.42454545454545456	467.0	-0.014545454545454545	-16.0	-0.22346938775510206	219.0	1.5228925275464063E12	1.522892527556E12	1226.5625	40192.0	0.0	0.0	
-0.9312977099236641	-25.0	0.38167938931297707	61.0	1.5725190839694656	-103.0	0.0	1284.0	9.19277108433735	2047.0	0.0	2047.0	-0.42	462.0	-0.024545454545454544	-27.0	-0.2285714285714286	224.0	1.5228925275503125E12	1.522892527557E12	1230.46875	40320.0	0.0	0.0	
-1.0229007633587786	-38.0	0.5801526717557252	67.0	1.7404580152671756	-114.0	0.0	1284.0	9.19277108433735	2047.0	0.0	2047.0	-0.4209090909090909	463.0	-0.02181818181818182	-24.0	-0.22346938775510206	219.0	1.5228925275542188E12	1.522892527557E12	1234.375	40448.0	0.0	0.0	
-0.8396946564885496	-31.0	0.47328244274809156	55.0	1.4961832061068703	-98.0	0.024096385542168676	1283.0	9.204819277108435	2045.0	0.024096385542168676	2045.0	-0.41363636363636364	455.0	-0.024545454545454544	-27.0	-0.22653061224489798	222.0	1.522892527558125E12	1.522892527559E12	1238.28125	40576.0	0.0	0.0	
-0.8244274809160305	-37.0	0.564885496183206	54.0	1.7251908396946565	-113.0	0.03614457831325302	1283.0	9.204819277108435	2044.0	0.024096385542168676	2045.0	-0.42454545454545456	467.0	-0.019090909090909092	-21.0	-0.2285714285714286	224.0	1.5228925275620313E12	1.522892527571E12	1242.1875	40704.0	0.0	0.0	
-0.8549618320610687	-31.0	0.47328244274809156	56.0	1.5572519083969465	-102.0	0.012048192771084338	1286.0	9.168674698795181	2046.0	-0.012048192771084338	2048.0	-0.42454545454545456	467.0	-0.019090909090909092	-21.0	-0.2285714285714286	224.0	1.5228925275659375E12	1.522892527572E12	1246.09375	40832.0	0.0	0.0	
-0.8854961832061068	-33.0	0.5038167938931297	58.0	1.4351145038167938	-94.0	0.0	1284.0	9.19277108433735	2047.0	-0.012048192771084338	2048.0	-0.4172727272727273	459.0	-0.026363636363636363	-29.0	-0.23163265306122452	227.0	1.5228925275698438E12	1.522892527574E12	1250.0	40960.0	0.0	0.0	
-0.6717557251908397	-34.0	0.5190839694656488	44.0	1.5114503816793892	-99.0	0.0	1286.0	9.168674698795181	2047.0	0.0	2047.0	-0.42272727272727273	465.0	-0.014545454545454545	-16.0	-0.22551020408163266	221.0	1.52289252757375E12	1.522892527586E12	1253.90625	41088.0	0.0	0.0	
-0.8244274809160305	-24.0	0.366412213740458	54.0	1.6335877862595418	-107.0	0.060240963855421686	1287.0	9.156626506024097	2042.0	0.0	2047.0	-0.4209090909090909	463.0	-0.02	-22.0	-0.2295918367346939	225.0	1.5228925275776563E12	1.522892527588E12	1257.8125	41216.0	0.0	0.0	
-0.7480916030534351	-17.0	0.2595419847328244	49.0	1.7404580152671756	-114.0	0.13253012048192772	1284.0	9.19277108433735	2036.0	-0.024096385542168676	2049.0	-0.4172727272727273	459.0	-0.016363636363636365	-18.0	-0.2295918367346939	225.0	1.5228925275815625E12	1.52289252759E12	1261.71875	41344.0	0.0	0.0	
-0.8244274809160305	-36.0	0.549618320610687	54.0	1.6793893129770991	-110.0	0.16867469879518074	1283.0	9.204819277108435	2033.0	-0.04819277108433735	2051.0	-0.41545454545454547	457.0	-0.02090909090909091	-23.0	-0.2285714285714286	224.0	1.5228925275854688E12	1.522892527601E12	1265.625	41472.0	0.0	0.0	
-0.9007633587786259	-39.0	0.5954198473282443	59.0	1.465648854961832	-96.0	0.10843373493975904	1282.0	9.216867469879519	2038.0	-0.07228915662650603	2053.0	-0.41909090909090907	461.0	-0.02	-22.0	-0.2295918367346939	225.0	1.522892527589375E12	1.522892527602E12	1269.53125	41600.0	0.0	0.0	
-0.9312977099236641	-55.0	0.8396946564885496	61.0	1.4198473282442747	-93.0	0.07228915662650603	1283.0	9.204819277108435	2041.0	-0.0963855421686747	2055.0	-0.41909090909090907	461.0	-0.02	-22.0	-0.2295918367346939	225.0	1.5228925275932813E12	1.522892527603E12	1273.4375	41728.0	0.0	0.0	
-0.9618320610687022	-58.0	0.8854961832061068	63.0	1.5725190839694656	-103.0	0.024096385542168676	1283.0	9.204819277108435	2045.0	-0.10843373493975904	2056.0	-0.4163636363636364	458.0	-0.02	-22.0	-0.22448979591836737	220.0	1.5228925275971875E12	1.522892527605E12	1277.34375	41856.0	0.0	0.0	
-1.0381679389312977	-64.0	0.9770992366412213	68.0	1.4351145038167938	-94.0	0.012048192771084338	1282.0	9.216867469879519	2046.0	-0.10843373493975904	2056.0	-0.41363636363636364	455.0	0.0	0.0	-0.22551020408163266	221.0	1.5228925276010938E12	1.522892527606E12	1281.25	41984.0	0.0	0.0	
-1.0687022900763359	-46.0	0.7022900763358778	70.0	1.7251908396946565	-113.0	0.0	1284.0	9.19277108433735	2047.0	-0.08433734939759037	2054.0	-0.41454545454545455	456.0	-0.005454545454545455	-6.0	-0.22755102040816327	223.0	1.522892527605E12	1.522892527607E12	1285.15625	42112.0	0.0	0.0	
-0.8549618320610687	-47.0	0.7175572519083969	56.0	1.5267175572519083	-100.0	0.03614457831325302	1284.0	9.19277108433735	2044.0	-0.04819277108433735	2051.0	-0.41545454545454547	457.0	-0.015454545454545455	-17.0	-0.22653061224489798	222.0	1.5228925276089063E12	1.522892527624E12	1289.0625	42240.0	0.0	0.0	
-1.099236641221374	-44.0	0.6717557251908397	72.0	1.3893129770992365	-91.0	0.03614457831325302	1284.0	9.19277108433735	2044.0	-0.04819277108433735	2051.0	-0.42454545454545456	467.0	-0.02181818181818182	-24.0	-0.2285714285714286	224.0	1.5228925276128125E12	1.522892527626E12	1292.96875	42368.0	0.0	0.0	
-0.8091603053435115	-60.0	0.916030534351145	53.0	1.282442748091603	-84.0	0.012048192771084338	1286.0	9.168674698795181	2046.0	-0.04819277108433735	2051.0	-0.42	462.0	-0.019090909090909092	-21.0	-0.22244897959183677	218.0	1.5228925276167188E12	1.522892527627E12	1296.875	42496.0	0.0	0.0	
-1.3129770992366412	-46.0	0.7022900763358778	86.0	1.465648854961832	-96.0	0.0	1283.0	9.204819277108435	2047.0	-0.03614457831325302	2050.0	-0.42	462.0	-0.019090909090909092	-21.0	-0.22244897959183677	218.0	1.522892527620625E12	1.522892527659E12	1300.78125	42624.0	0.0	0.0	
-1.0687022900763359	-43.0	0.6564885496183206	70.0	1.282442748091603	-84.0	-0.060240963855421686	1284.0	9.19277108433735	2052.0	-0.024096385542168676	2049.0	-0.41909090909090907	461.0	-0.012727272727272728	-14.0	-0.2285714285714286	224.0	1.5228925276245313E12	1.522892527662E12	1304.6875	42752.0	0.0	0.0	
-1.129770992366412	-33.0	0.5038167938931297	74.0	1.1908396946564885	-78.0	-0.07228915662650603	1284.0	9.19277108433735	2053.0	-0.012048192771084338	2048.0	-0.42272727272727273	465.0	-0.01818181818181818	-20.0	-0.22653061224489798	222.0	1.5228925276284375E12	1.522892527663E12	1308.59375	42880.0	0.0	0.0	
-1.2213740458015268	-42.0	0.6412213740458015	80.0	1.3587786259541985	-89.0	-0.0963855421686747	1284.0	9.19277108433735	2055.0	0.03614457831325302	2044.0	-0.42272727272727273	465.0	-0.02727272727272727	-30.0	-0.22653061224489798	222.0	1.5228925276323438E12	1.522892527664E12	1312.5	43008.0	0.0	0.0	
-1.2061068702290076	-44.0	0.6717557251908397	79.0	1.648854961832061	-108.0	-0.0963855421686747	1284.0	9.19277108433735	2055.0	0.07228915662650603	2041.0	-0.41909090909090907	461.0	-0.017272727272727273	-19.0	-0.22551020408163266	221.0	1.52289252763625E12	1.522892527665E12	1316.40625	43136.0	0.0	0.0	
-1.1450381679389312	-40.0	0.6106870229007634	75.0	1.648854961832061	-108.0	-0.10843373493975904	1285.0	9.180722891566266	2056.0	0.07228915662650603	2041.0	-0.4163636363636364	458.0	-0.02	-22.0	-0.22346938775510206	219.0	1.5228925276401563E12	1.522892527666E12	1320.3125	43264.0	0.0	0.0	
-1.0687022900763359	-32.0	0.48854961832061067	70.0	1.6030534351145038	-105.0	-0.0963855421686747	1286.0	9.168674698795181	2055.0	0.08433734939759037	2040.0	-0.42363636363636364	466.0	-0.026363636363636363	-29.0	-0.2285714285714286	224.0	1.5228925276440625E12	1.522892527667E12	1324.21875	43392.0	0.0	0.0	
-1.0229007633587786	-30.0	0.4580152671755725	67.0	1.648854961832061	-108.0	-0.012048192771084338	1286.0	9.168674698795181	2048.0	0.060240963855421686	2042.0	-0.42363636363636364	466.0	-0.026363636363636363	-29.0	-0.2285714285714286	224.0	1.5228925276479688E12	1.522892527667E12	1328.125	43520.0	0.0	0.0	
-1.083969465648855	-31.0	0.47328244274809156	71.0	1.6335877862595418	-107.0	0.0	1284.0	9.19277108433735	2047.0	0.07228915662650603	2041.0	-0.41818181818181815	460.0	-0.014545454545454545	-16.0	-0.23163265306122452	227.0	1.522892527651875E12	1.522892527668E12	1332.03125	43648.0	0.0	0.0	
-1.0076335877862594	-27.0	0.41221374045801523	66.0	1.450381679389313	-95.0	0.0	1285.0	9.180722891566266	2047.0	0.07228915662650603	2041.0	-0.4209090909090909	463.0	-0.02727272727272727	-30.0	-0.22755102040816327	223.0	1.5228925276557813E12	1.522892527669E12	1335.9375	43776.0	0.0	0.0	
-0.9770992366412213	-42.0	0.6412213740458015	64.0	1.648854961832061	-108.0	-0.04819277108433735	1284.0	9.19277108433735	2051.0	0.07228915662650603	2041.0	-0.4218181818181818	464.0	-0.025454545454545455	-28.0	-0.2295918367346939	225.0	1.5228925276596875E12	1.52289252767E12	1339.84375	43904.0	0.0	0.0	
-0.9618320610687022	-25.0	0.38167938931297707	63.0	1.282442748091603	-84.0	-0.0963855421686747	1284.0	9.19277108433735	2055.0	0.060240963855421686	2042.0	-0.4209090909090909	463.0	-0.017272727272727273	-19.0	-0.2326530612244898	228.0	1.5228925276635938E12	1.522892527671E12	1343.75	44032.0	0.0	0.0	
-0.9312977099236641	-30.0	0.4580152671755725	61.0	1.465648854961832	-96.0	-0.08433734939759037	1284.0	9.19277108433735	2054.0	0.08433734939759037	2040.0	-0.42272727272727273	465.0	-0.024545454545454544	-27.0	-0.2285714285714286	224.0	1.5228925276675E12	1.522892527681E12	1347.65625	44160.0	0.0	0.0	
-1.1450381679389312	-31.0	0.47328244274809156	75.0	1.9236641221374045	-126.0	-0.060240963855421686	1284.0	9.19277108433735	2052.0	0.08433734939759037	2040.0	-0.42	462.0	-0.008181818181818182	-9.0	-0.22244897959183677	218.0	1.5228925276714063E12	1.522892527681E12	1351.5625	44288.0	0.0	0.0	
-0.9770992366412213	-33.0	0.5038167938931297	64.0	1.6793893129770991	-110.0	0.024096385542168676	1284.0	9.19277108433735	2045.0	0.07228915662650603	2041.0	-0.42	462.0	-0.008181818181818182	-9.0	-0.22244897959183677	218.0	1.5228925276753125E12	1.522892527682E12	1355.46875	44416.0	0.0	0.0	
-0.8396946564885496	-35.0	0.5343511450381679	55.0	1.5419847328244274	-101.0	0.012048192771084338	1284.0	9.19277108433735	2046.0	0.060240963855421686	2042.0	-0.42	462.0	-0.016363636363636365	-18.0	-0.2295918367346939	225.0	1.5228925276792188E12	1.522892527698E12	1359.375	44544.0	0.0	0.0	
-0.6870229007633587	-54.0	0.8244274809160305	45.0	1.5572519083969465	-102.0	-0.03614457831325302	1286.0	9.168674698795181	2050.0	0.07228915662650603	2041.0	-0.41	451.0	0.0	0.0	-0.21938775510204084	215.0	1.522892527683125E12	1.522892527698E12	1363.28125	44672.0	0.0	0.0	
-0.9465648854961831	-41.0	0.6259541984732824	62.0	1.5725190839694656	-103.0	-0.060240963855421686	1285.0	9.180722891566266	2052.0	0.03614457831325302	2044.0	-0.42	462.0	-0.02181818181818182	-24.0	-0.2295918367346939	225.0	1.5228925276870313E12	1.522892527699E12	1367.1875	44800.0	0.0	0.0	
-1.129770992366412	-25.0	0.38167938931297707	74.0	1.7099236641221374	-112.0	-0.024096385542168676	1288.0	9.144578313253012	2049.0	0.04819277108433735	2043.0	-0.4081818181818182	449.0	-0.02	-22.0	-0.2285714285714286	224.0	1.5228925276909375E12	1.522892527701E12	1371.09375	44928.0	0.0	0.0	
-0.8396946564885496	-28.0	0.42748091603053434	55.0	1.618320610687023	-106.0	0.060240963855421686	1286.0	9.168674698795181	2042.0	0.04819277108433735	2043.0	-0.4118181818181818	453.0	-0.023636363636363636	-26.0	-0.22653061224489798	222.0	1.5228925276948438E12	1.522892527702E12	1375.0	45056.0	0.0	0.0	
-1.0381679389312977	-26.0	0.3969465648854962	68.0	1.618320610687023	-106.0	0.13253012048192772	1286.0	9.168674698795181	2036.0	0.060240963855421686	2042.0	-0.4118181818181818	453.0	-0.023636363636363636	-26.0	-0.22653061224489798	222.0	1.52289252769875E12	1.522892527702E12	1378.90625	45184.0	0.0	0.0	
-0.8702290076335878	-35.0	0.5343511450381679	57.0	1.4198473282442747	-93.0	0.14457831325301207	1286.0	9.168674698795181	2035.0	0.04819277108433735	2043.0	-0.41909090909090907	461.0	-0.017272727272727273	-19.0	-0.2285714285714286	224.0	1.5228925277026563E12	1.522892527713E12	1382.8125	45312.0	0.0	0.0	
-1.0534351145038168	-41.0	0.6259541984732824	69.0	1.4961832061068703	-98.0	0.07228915662650603	1282.0	9.216867469879519	2041.0	0.012048192771084338	2046.0	-0.42	462.0	-0.017272727272727273	-19.0	-0.22653061224489798	222.0	1.5228925277065625E12	1.522892527714E12	1386.71875	45440.0	0.0	0.0	
-0.916030534351145	-36.0	0.549618320610687	60.0	1.5877862595419847	-104.0	0.0	1283.0	9.204819277108435	2047.0	0.0	2047.0	-0.4163636363636364	458.0	-0.005454545454545455	-6.0	-0.2306122448979592	226.0	1.5228925277104688E12	1.522892527715E12	1390.625	45568.0	0.0	0.0	
-0.8244274809160305	-47.0	0.7175572519083969	54.0	1.3435114503816794	-88.0	-0.012048192771084338	1281.0	9.228915662650603	2048.0	0.0	2047.0	-0.41909090909090907	461.0	-0.013636363636363636	-15.0	-0.22653061224489798	222.0	1.522892527714375E12	1.522892527726E12	1394.53125	45696.0	0.0	0.0	
-0.9770992366412213	-41.0	0.6259541984732824	64.0	1.6946564885496183	-111.0	0.024096385542168676	1284.0	9.19277108433735	2045.0	0.0	2047.0	-0.41909090909090907	461.0	-0.01090909090909091	-12.0	-0.2285714285714286	224.0	1.5228925277182813E12	1.522892527727E12	1398.4375	45824.0	0.0	0.0	
-0.8549618320610687	-31.0	0.47328244274809156	56.0	1.6793893129770991	-110.0	0.060240963855421686	1283.0	9.204819277108435	2042.0	0.012048192771084338	2046.0	-0.42454545454545456	467.0	-0.023636363636363636	-26.0	-0.2285714285714286	224.0	1.5228925277221875E12	1.522892527727E12	1402.34375	45952.0	0.0	0.0	
-1.0229007633587786	-30.0	0.4580152671755725	67.0	1.5572519083969465	-102.0	0.0963855421686747	1284.0	9.19277108433735	2039.0	0.024096385542168676	2045.0	-0.42454545454545456	467.0	-0.023636363636363636	-26.0	-0.2285714285714286	224.0	1.5228925277260938E12	1.522892527736E12	1406.25	46080.0	0.0	0.0	
-1.0229007633587786	-39.0	0.5954198473282443	67.0	1.3740458015267174	-90.0	0.07228915662650603	1285.0	9.180722891566266	2041.0	0.024096385542168676	2045.0	-0.41818181818181815	460.0	-0.013636363636363636	-15.0	-0.22448979591836737	220.0	1.52289252773E12	1.522892527737E12	1410.15625	46208.0	0.0	0.0	
-0.9923664122137404	-35.0	0.5343511450381679	65.0	1.3893129770992365	-91.0	0.03614457831325302	1285.0	9.180722891566266	2044.0	0.03614457831325302	2044.0	-0.42	462.0	-0.00909090909090909	-10.0	-0.22551020408163266	221.0	1.5228925277339063E12	1.522892527737E12	1414.0625	46336.0	0.0	0.0	
-0.9618320610687022	-55.0	0.8396946564885496	63.0	1.465648854961832	-96.0	-0.012048192771084338	1284.0	9.19277108433735	2048.0	0.03614457831325302	2044.0	-0.42272727272727273	465.0	-0.025454545454545455	-28.0	-0.2285714285714286	224.0	1.5228925277378125E12	1.522892527751E12	1417.96875	46464.0	0.0	0.0	
-0.9465648854961831	-40.0	0.6106870229007634	62.0	1.3587786259541985	-89.0	-0.060240963855421686	1283.0	9.204819277108435	2052.0	0.04819277108433735	2043.0	-0.42	462.0	-0.022727272727272728	-25.0	-0.2295918367346939	225.0	1.5228925277417188E12	1.522892527752E12	1421.875	46592.0	0.0	0.0	
-0.8549618320610687	-43.0	0.6564885496183206	56.0	1.6793893129770991	-110.0	-0.07228915662650603	1285.0	9.180722891566266	2053.0	0.060240963855421686	2042.0	-0.4218181818181818	464.0	-0.012727272727272728	-14.0	-0.22755102040816327	223.0	1.522892527745625E12	1.522892527753E12	1425.78125	46720.0	0.0	0.0	
-0.9618320610687022	-47.0	0.7175572519083969	63.0	1.3740458015267174	-90.0	-0.08433734939759037	1285.0	9.180722891566266	2054.0	0.08433734939759037	2040.0	-0.41454545454545455	456.0	-0.008181818181818182	-9.0	-0.2306122448979592	226.0	1.5228925277495313E12	1.522892527761E12	1429.6875	46848.0	0.0	0.0	
-0.8244274809160305	-40.0	0.6106870229007634	54.0	1.4961832061068703	-98.0	-0.08433734939759037	1285.0	9.180722891566266	2054.0	0.0963855421686747	2039.0	-0.41454545454545455	456.0	-0.008181818181818182	-9.0	-0.2306122448979592	226.0	1.5228925277534375E12	1.522892527762E12	1433.59375	46976.0	0.0	0.0	
-1.099236641221374	-36.0	0.549618320610687	72.0	1.66412213740458	-109.0	-0.03614457831325302	1286.0	9.168674698795181	2050.0	0.0963855421686747	2039.0	-0.41454545454545455	456.0	-0.02181818181818182	-24.0	-0.2285714285714286	224.0	1.5228925277573438E12	1.522892527762E12	1437.5	47104.0	0.0	0.0	
-1.0534351145038168	-32.0	0.48854961832061067	69.0	1.5572519083969465	-102.0	-0.03614457831325302	1286.0	9.168674698795181	2050.0	0.12048192771084337	2037.0	-0.42363636363636364	466.0	-0.012727272727272728	-14.0	-0.22551020408163266	221.0	1.52289252776125E12	1.522892527775E12	1441.40625	47232.0	0.0	0.0	
-0.732824427480916	-26.0	0.3969465648854962	48.0	1.4045801526717556	-92.0	0.0	1285.0	9.180722891566266	2047.0	0.13253012048192772	2036.0	-0.42	462.0	-0.008181818181818182	-9.0	-0.22244897959183677	218.0	1.5228925277651563E12	1.522892527776E12	1445.3125	47360.0	0.0	0.0	
-0.8854961832061068	-25.0	0.38167938931297707	58.0	1.648854961832061	-108.0	0.04819277108433735	1287.0	9.156626506024097	2043.0	0.0963855421686747	2039.0	-0.4172727272727273	459.0	-0.02090909090909091	-23.0	-0.22448979591836737	220.0	1.5228925277690625E12	1.522892527776E12	1449.21875	47488.0	0.0	0.0	
-0.8091603053435115	-26.0	0.3969465648854962	53.0	1.3587786259541985	-89.0	0.08433734939759037	1285.0	9.180722891566266	2040.0	0.060240963855421686	2042.0	-0.42363636363636364	466.0	-0.014545454545454545	-16.0	-0.22346938775510206	219.0	1.5228925277729688E12	1.52289252781E12	1453.125	47616.0	0.0	0.0	
-0.8549618320610687	-38.0	0.5801526717557252	56.0	1.3129770992366412	-86.0	0.024096385542168676	1283.0	9.204819277108435	2045.0	0.060240963855421686	2042.0	-0.41909090909090907	461.0	-0.022727272727272728	-25.0	-0.2285714285714286	224.0	1.522892527776875E12	1.52289252781E12	1457.03125	47744.0	0.0	0.0	
-0.8854961832061068	-35.0	0.5343511450381679	58.0	1.4198473282442747	-93.0	-0.024096385542168676	1282.0	9.216867469879519	2049.0	0.03614457831325302	2044.0	-0.41909090909090907	461.0	-0.022727272727272728	-25.0	-0.2285714285714286	224.0	1.5228925277807813E12	1.522892527812E12	1460.9375	47872.0	0.0	0.0	
-1.083969465648855	-49.0	0.7480916030534351	71.0	1.4809160305343512	-97.0	-0.04819277108433735	1284.0	9.19277108433735	2051.0	0.024096385542168676	2045.0	-0.41818181818181815	460.0	-0.022727272727272728	-25.0	-0.22755102040816327	223.0	1.5228925277846875E12	1.522892527813E12	1464.84375	48000.0	0.0	0.0	
-0.7633587786259541	-26.0	0.3969465648854962	50.0	1.648854961832061	-108.0	-0.012048192771084338	1283.0	9.204819277108435	2048.0	0.024096385542168676	2045.0	-0.42272727272727273	465.0	-0.013636363636363636	-15.0	-0.22551020408163266	221.0	1.5228925277885938E12	1.522892527814E12	1468.75	48128.0	0.0	0.0	
-0.7022900763358778	-24.0	0.366412213740458	46.0	1.4961832061068703	-98.0	0.0	1282.0	9.216867469879519	2047.0	0.03614457831325302	2044.0	-0.4127272727272727	454.0	-0.02727272727272727	-30.0	-0.23163265306122452	227.0	1.5228925277925E12	1.522892527815E12	1472.65625	48256.0	0.0	0.0	
-0.8244274809160305	-28.0	0.42748091603053434	54.0	1.66412213740458	-109.0	0.060240963855421686	1284.0	9.19277108433735	2042.0	0.04819277108433735	2043.0	-0.41909090909090907	461.0	-0.015454545454545455	-17.0	-0.22755102040816327	223.0	1.5228925277964063E12	1.522892527816E12	1476.5625	48384.0	0.0	0.0	
-0.8549618320610687	-49.0	0.7480916030534351	56.0	1.7099236641221374	-112.0	0.04819277108433735	1283.0	9.204819277108435	2043.0	0.07228915662650603	2041.0	-0.42363636363636364	466.0	-0.016363636363636365	-18.0	-0.22551020408163266	221.0	1.5228925278003125E12	1.522892527816E12	1480.46875	48512.0	0.0	0.0	
-0.6412213740458015	-32.0	0.48854961832061067	42.0	1.4809160305343512	-97.0	0.03614457831325302	1284.0	9.19277108433735	2044.0	0.060240963855421686	2042.0	-0.4172727272727273	459.0	-0.023636363636363636	-26.0	-0.23163265306122452	227.0	1.5228925278042188E12	1.522892527817E12	1484.375	48640.0	0.0	0.0	
-0.8396946564885496	-27.0	0.41221374045801523	55.0	1.4045801526717556	-92.0	-0.024096385542168676	1284.0	9.19277108433735	2049.0	0.060240963855421686	2042.0	-0.4172727272727273	459.0	-0.023636363636363636	-26.0	-0.23163265306122452	227.0	1.522892527808125E12	1.522892527818E12	1488.28125	48768.0	0.0	0.0	
-0.732824427480916	-33.0	0.5038167938931297	48.0	1.6030534351145038	-105.0	-0.04819277108433735	1284.0	9.19277108433735	2051.0	0.060240963855421686	2042.0	-0.4209090909090909	463.0	-0.012727272727272728	-14.0	-0.22653061224489798	222.0	1.5228925278120313E12	1.52289252782E12	1492.1875	48896.0	0.0	0.0	
-0.7633587786259541	-24.0	0.366412213740458	50.0	1.4809160305343512	-97.0	-0.012048192771084338	1285.0	9.180722891566266	2048.0	0.04819277108433735	2043.0	-0.4218181818181818	464.0	-0.01818181818181818	-20.0	-0.22346938775510206	219.0	1.5228925278159375E12	1.52289252782E12	1496.09375	49024.0	0.0	0.0	
-0.8549618320610687	-24.0	0.366412213740458	56.0	1.5419847328244274	-101.0	-0.024096385542168676	1285.0	9.180722891566266	2049.0	0.060240963855421686	2042.0	-0.4163636363636364	458.0	-0.023636363636363636	-26.0	-0.2295918367346939	225.0	1.5228925278198438E12	1.522892527821E12	1500.0	49152.0	0.0	0.0	
-0.7938931297709924	-23.0	0.3511450381679389	52.0	1.83206106870229	-120.0	0.012048192771084338	1285.0	9.180722891566266	2046.0	0.060240963855421686	2042.0	-0.41909090909090907	461.0	-0.02090909090909091	-23.0	-0.22346938775510206	219.0	1.52289252782375E12	1.522892527834E12	1503.90625	49280.0	0.0	0.0	
-0.8854961832061068	-29.0	0.4427480916030534	58.0	1.5725190839694656	-103.0	0.03614457831325302	1284.0	9.19277108433735	2044.0	0.060240963855421686	2042.0	-0.4127272727272727	454.0	-0.0018181818181818182	-2.0	-0.22653061224489798	222.0	1.5228925278276563E12	1.522892527835E12	1507.8125	49408.0	0.0	0.0	
-0.8244274809160305	-43.0	0.6564885496183206	54.0	1.648854961832061	-108.0	0.024096385542168676	1284.0	9.19277108433735	2045.0	0.07228915662650603	2041.0	-0.41909090909090907	461.0	-0.008181818181818182	-9.0	-0.22040816326530616	216.0	1.5228925278315625E12	1.522892527836E12	1511.71875	49536.0	0.0	0.0	
-0.7938931297709924	-31.0	0.47328244274809156	52.0	1.4351145038167938	-94.0	0.012048192771084338	1284.0	9.19277108433735	2046.0	0.08433734939759037	2040.0	-0.41909090909090907	461.0	-0.008181818181818182	-9.0	-0.22040816326530616	216.0	1.5228925278354688E12	1.522892527847E12	1515.625	49664.0	0.0	0.0	
-0.9465648854961831	-30.0	0.4580152671755725	62.0	1.7251908396946565	-113.0	0.03614457831325302	1284.0	9.19277108433735	2044.0	0.08433734939759037	2040.0	-0.4172727272727273	459.0	-0.014545454545454545	-16.0	-0.22755102040816327	223.0	1.522892527839375E12	1.522892527848E12	1519.53125	49792.0	0.0	0.0	
-0.8396946564885496	-37.0	0.564885496183206	55.0	1.3282442748091603	-87.0	0.03614457831325302	1283.0	9.204819277108435	2044.0	0.0963855421686747	2039.0	-0.42363636363636364	466.0	-0.02	-22.0	-0.22244897959183677	218.0	1.5228925278432813E12	1.522892527849E12	1523.4375	49920.0	0.0	0.0	
-0.7786259541984732	-45.0	0.6870229007633587	51.0	1.4809160305343512	-97.0	-0.024096385542168676	1284.0	9.19277108433735	2049.0	0.12048192771084337	2037.0	-0.4209090909090909	463.0	-0.02	-22.0	-0.22346938775510206	219.0	1.5228925278471875E12	1.522892527861E12	1527.34375	50048.0	0.0	0.0	
-0.6717557251908397	-36.0	0.549618320610687	44.0	1.3435114503816794	-88.0	-0.060240963855421686	1285.0	9.180722891566266	2052.0	0.12048192771084337	2037.0	-0.42	462.0	-0.01	-11.0	-0.2285714285714286	224.0	1.5228925278510938E12	1.522892527863E12	1531.25	50176.0	0.0	0.0	
-0.8244274809160305	-26.0	0.3969465648854962	54.0	1.5267175572519083	-100.0	-0.08433734939759037	1285.0	9.180722891566266	2054.0	0.14457831325301207	2035.0	-0.42454545454545456	467.0	-0.01818181818181818	-20.0	-0.22244897959183677	218.0	1.522892527855E12	1.522892527863E12	1535.15625	50304.0	0.0	0.0	
-0.6717557251908397	-32.0	0.48854961832061067	44.0	1.5267175572519083	-100.0	-0.060240963855421686	1285.0	9.180722891566266	2052.0	0.13253012048192772	2036.0	-0.42454545454545456	467.0	-0.019090909090909092	-21.0	-0.22244897959183677	218.0	1.5228925278589063E12	1.522892527865E12	1539.0625	50432.0	0.0	0.0	
-0.7938931297709924	-24.0	0.366412213740458	52.0	1.7251908396946565	-113.0	-0.024096385542168676	1283.0	9.204819277108435	2049.0	0.13253012048192772	2036.0	-0.42272727272727273	465.0	-0.019090909090909092	-21.0	-0.22346938775510206	219.0	1.5228925278628125E12	1.522892527866E12	1542.96875	50560.0	0.0	0.0	
-0.5190839694656488	-28.0	0.42748091603053434	34.0	1.5572519083969465	-102.0	0.024096385542168676	1283.0	9.204819277108435	2045.0	0.12048192771084337	2037.0	-0.41818181818181815	460.0	-0.01	-11.0	-0.2285714285714286	224.0	1.5228925278667188E12	1.522892527867E12	1546.875	50688.0	0.0	0.0	
-0.6870229007633587	-25.0	0.38167938931297707	45.0	1.7404580152671756	-114.0	0.04819277108433735	1285.0	9.180722891566266	2043.0	0.08433734939759037	2040.0	-0.42363636363636364	466.0	-0.02090909090909091	-23.0	-0.22755102040816327	223.0	1.522892527870625E12	1.52289252788E12	1550.78125	50816.0	0.0	0.0	
-0.41221374045801523	-27.0	0.41221374045801523	27.0	1.6335877862595418	-107.0	0.03614457831325302	1285.0	9.180722891566266	2044.0	0.07228915662650603	2041.0	-0.42454545454545456	467.0	-0.02	-22.0	-0.22653061224489798	222.0	1.5228925278745313E12	1.522892527881E12	1554.6875	50944.0	0.0	0.0	
-0.5343511450381679	-14.0	0.21374045801526717	35.0	1.4351145038167938	-94.0	0.03614457831325302	1284.0	9.19277108433735	2044.0	0.03614457831325302	2044.0	-0.41	451.0	-0.014545454545454545	-16.0	-0.22755102040816327	223.0	1.5228925278784375E12	1.522892527883E12	1558.59375	51072.0	0.0	0.0	
-0.5038167938931297	-10.0	0.15267175572519084	33.0	1.4351145038167938	-94.0	0.03614457831325302	1284.0	9.19277108433735	2044.0	0.012048192771084338	2046.0	-0.42	462.0	-0.02727272727272727	-30.0	-0.22551020408163266	221.0	1.5228925278823438E12	1.522892527895E12	1562.5	51200.0	0.0	0.0	
-0.5190839694656488	-26.0	0.3969465648854962	34.0	1.4198473282442747	-93.0	0.024096385542168676	1284.0	9.19277108433735	2045.0	0.0	2047.0	-0.42	462.0	-0.02727272727272727	-30.0	-0.22551020408163266	221.0	1.52289252788625E12	1.522892527896E12	1566.40625	51328.0	0.0	0.0	
-0.47328244274809156	-30.0	0.4580152671755725	31.0	1.5419847328244274	-101.0	0.0	1284.0	9.19277108433735	2047.0	-0.012048192771084338	2048.0	-0.41909090909090907	461.0	-0.026363636363636363	-29.0	-0.22755102040816327	223.0	1.5228925278901563E12	1.522892527898E12	1570.3125	51456.0	0.0	0.0	
-0.5954198473282443	-41.0	0.6259541984732824	39.0	1.618320610687023	-106.0	-0.012048192771084338	1283.0	9.204819277108435	2048.0	0.012048192771084338	2046.0	-0.42	462.0	-0.016363636363636365	-18.0	-0.2306122448979592	226.0	1.5228925278940625E12	1.522892527905E12	1574.21875	51584.0	0.0	0.0	
-0.6106870229007634	-41.0	0.6259541984732824	40.0	1.6335877862595418	-107.0	-0.04819277108433735	1285.0	9.180722891566266	2051.0	0.0	2047.0	-0.4172727272727273	459.0	-0.007272727272727273	-8.0	-0.22448979591836737	220.0	1.5228925278979688E12	1.522892527906E12	1578.125	51712.0	0.0	0.0	
-0.5038167938931297	-39.0	0.5954198473282443	33.0	1.618320610687023	-106.0	-0.024096385542168676	1284.0	9.19277108433735	2049.0	-0.012048192771084338	2048.0	-0.41818181818181815	460.0	-0.023636363636363636	-26.0	-0.22755102040816327	223.0	1.522892527901875E12	1.522892527907E12	1582.03125	51840.0	0.0	0.0	
-0.5190839694656488	-36.0	0.549618320610687	34.0	1.5267175572519083	-100.0	-0.024096385542168676	1285.0	9.180722891566266	2049.0	-0.012048192771084338	2048.0	-0.41818181818181815	460.0	-0.015454545454545455	-17.0	-0.2306122448979592	226.0	1.5228925279057813E12	1.522892527917E12	1585.9375	51968.0	0.0	0.0	
-0.5343511450381679	-39.0	0.5954198473282443	35.0	1.5877862595419847	-104.0	-0.024096385542168676	1283.0	9.204819277108435	2049.0	0.0	2047.0	-0.42272727272727273	465.0	-0.025454545454545455	-28.0	-0.22653061224489798	222.0	1.5228925279096875E12	1.522892527918E12	1589.84375	52096.0	0.0	0.0	
-0.6259541984732824	-33.0	0.5038167938931297	41.0	1.4198473282442747	-93.0	-0.024096385542168676	1283.0	9.204819277108435	2049.0	0.012048192771084338	2046.0	-0.42272727272727273	465.0	-0.025454545454545455	-28.0	-0.22653061224489798	222.0	1.5228925279135938E12	1.52289252792E12	1593.75	52224.0	0.0	0.0	
-0.6717557251908397	-17.0	0.2595419847328244	44.0	1.4809160305343512	-97.0	-0.03614457831325302	1285.0	9.180722891566266	2050.0	0.024096385542168676	2045.0	-0.4209090909090909	463.0	-0.01818181818181818	-20.0	-0.2285714285714286	224.0	1.5228925279175E12	1.52289252796E12	1597.65625	52352.0	0.0	0.0	
-0.6717557251908397	-31.0	0.47328244274809156	44.0	1.450381679389313	-95.0	-0.04819277108433735	1283.0	9.204819277108435	2051.0	0.024096385542168676	2045.0	-0.4218181818181818	464.0	-0.01818181818181818	-20.0	-0.22755102040816327	223.0	1.5228925279214063E12	1.522892527961E12	1601.5625	52480.0	0.0	0.0	
-0.8396946564885496	-44.0	0.6717557251908397	55.0	1.5267175572519083	-100.0	-0.04819277108433735	1283.0	9.204819277108435	2051.0	0.04819277108433735	2043.0	-0.42454545454545456	467.0	-0.023636363636363636	-26.0	-0.22551020408163266	221.0	1.5228925279253125E12	1.522892527963E12	1605.46875	52608.0	0.0	0.0	
-0.564885496183206	-33.0	0.5038167938931297	37.0	1.4809160305343512	-97.0	-0.07228915662650603	1284.0	9.19277108433735	2053.0	0.012048192771084338	2046.0	-0.41818181818181815	460.0	-0.017272727272727273	-19.0	-0.22755102040816327	223.0	1.5228925279292188E12	1.522892527964E12	1609.375	52736.0	0.0	0.0	
-0.6717557251908397	-45.0	0.6870229007633587	44.0	1.7404580152671756	-114.0	-0.08433734939759037	1284.0	9.19277108433735	2054.0	0.024096385542168676	2045.0	-0.42	462.0	-0.00909090909090909	-10.0	-0.22653061224489798	222.0	1.522892527933125E12	1.522892527965E12	1613.28125	52864.0	0.0	0.0	
-0.7633587786259541	-29.0	0.4427480916030534	50.0	1.648854961832061	-108.0	-0.04819277108433735	1285.0	9.180722891566266	2051.0	0.04819277108433735	2043.0	-0.42363636363636364	466.0	-0.024545454545454544	-27.0	-0.22551020408163266	221.0	1.5228925279370313E12	1.522892527966E12	1617.1875	52992.0	0.0	0.0	
-0.7175572519083969	-23.0	0.3511450381679389	47.0	1.618320610687023	-106.0	0.04819277108433735	1285.0	9.180722891566266	2043.0	0.024096385542168676	2045.0	-0.42363636363636364	466.0	-0.024545454545454544	-27.0	-0.22551020408163266	221.0	1.5228925279409375E12	1.522892527967E12	1621.09375	53120.0	0.0	0.0	
-0.5190839694656488	-30.0	0.4580152671755725	34.0	1.648854961832061	-108.0	0.0963855421686747	1285.0	9.180722891566266	2039.0	0.024096385542168676	2045.0	-0.4163636363636364	458.0	-0.02090909090909091	-23.0	-0.23163265306122452	227.0	1.5228925279448438E12	1.522892527968E12	1625.0	53248.0	0.0	0.0	
-0.47328244274809156	-37.0	0.564885496183206	31.0	1.5114503816793892	-99.0	0.08433734939759037	1285.0	9.180722891566266	2040.0	0.04819277108433735	2043.0	-0.41818181818181815	460.0	-0.01	-11.0	-0.22040816326530616	216.0	1.52289252794875E12	1.52289252797E12	1628.90625	53376.0	0.0	0.0	
-0.6106870229007634	-35.0	0.5343511450381679	40.0	1.3282442748091603	-87.0	0.03614457831325302	1284.0	9.19277108433735	2044.0	0.03614457831325302	2044.0	-0.42363636363636364	466.0	-0.026363636363636363	-29.0	-0.22755102040816327	223.0	1.5228925279526563E12	1.522892527971E12	1632.8125	53504.0	0.0	0.0	
-0.6870229007633587	-23.0	0.3511450381679389	45.0	1.3435114503816794	-88.0	-0.012048192771084338	1284.0	9.19277108433735	2048.0	0.03614457831325302	2044.0	-0.41818181818181815	460.0	-0.025454545454545455	-28.0	-0.2306122448979592	226.0	1.5228925279565625E12	1.522892527972E12	1636.71875	53632.0	0.0	0.0	
-0.6259541984732824	-25.0	0.38167938931297707	41.0	1.3282442748091603	-87.0	0.0	1282.0	9.216867469879519	2047.0	0.03614457831325302	2044.0	-0.42272727272727273	465.0	-0.014545454545454545	-16.0	-0.22755102040816327	223.0	1.5228925279604688E12	1.522892527973E12	1640.625	53760.0	0.0	0.0	
-0.5343511450381679	-26.0	0.3969465648854962	35.0	1.6030534351145038	-105.0	0.03614457831325302	1281.0	9.228915662650603	2044.0	0.012048192771084338	2046.0	-0.42454545454545456	467.0	-0.025454545454545455	-28.0	-0.2285714285714286	224.0	1.522892527964375E12	1.522892527974E12	1644.53125	53888.0	0.0	0.0	
-0.48854961832061067	-33.0	0.5038167938931297	32.0	1.6335877862595418	-107.0	0.03614457831325302	1283.0	9.204819277108435	2044.0	0.0	2047.0	-0.42454545454545456	467.0	-0.025454545454545455	-28.0	-0.2285714285714286	224.0	1.5228925279682813E12	1.522892527975E12	1648.4375	54016.0	0.0	0.0	
-0.6717557251908397	-42.0	0.6412213740458015	44.0	1.5419847328244274	-101.0	0.024096385542168676	1284.0	9.19277108433735	2045.0	0.0	2047.0	-0.4209090909090909	463.0	-0.025454545454545455	-28.0	-0.2295918367346939	225.0	1.5228925279721875E12	1.522892527976E12	1652.34375	54144.0	0.0	0.0	
-0.4580152671755725	-38.0	0.5801526717557252	30.0	1.6030534351145038	-105.0	-0.012048192771084338	1286.0	9.168674698795181	2048.0	-0.012048192771084338	2048.0	-0.4127272727272727	454.0	-0.024545454545454544	-27.0	-0.22551020408163266	221.0	1.5228925279760938E12	1.522892527987E12	1656.25	54272.0	0.0	0.0	
-0.7022900763358778	-39.0	0.5954198473282443	46.0	1.5419847328244274	-101.0	-0.024096385542168676	1285.0	9.180722891566266	2049.0	0.0	2047.0	-0.41545454545454547	457.0	0.00909090909090909	10.0	-0.21836734693877552	214.0	1.52289252798E12	1.522892527988E12	1660.15625	54400.0	0.0	0.0	
-0.5954198473282443	-33.0	0.5038167938931297	39.0	1.5114503816793892	-99.0	-0.012048192771084338	1286.0	9.168674698795181	2048.0	0.0	2047.0	-0.41818181818181815	460.0	-0.013636363636363636	-15.0	-0.22653061224489798	222.0	1.5228925279839063E12	1.52289252799E12	1664.0625	54528.0	0.0	0.0	
-0.5038167938931297	-32.0	0.48854961832061067	33.0	1.4961832061068703	-98.0	-0.012048192771084338	1285.0	9.180722891566266	2048.0	0.0	2047.0	-0.4218181818181818	464.0	-0.014545454545454545	-16.0	-0.22448979591836737	220.0	1.5228925279878125E12	1.522892528E12	1667.96875	54656.0	0.0	0.0	
-0.6259541984732824	-38.0	0.5801526717557252	41.0	1.4961832061068703	-98.0	-0.07228915662650603	1286.0	9.168674698795181	2053.0	-0.04819277108433735	2051.0	-0.4218181818181818	464.0	-0.025454545454545455	-28.0	-0.22755102040816327	223.0	1.5228925279917188E12	1.522892528001E12	1671.875	54784.0	0.0	0.0	
-0.5343511450381679	-25.0	0.38167938931297707	35.0	1.4045801526717556	-92.0	-0.08433734939759037	1282.0	9.216867469879519	2054.0	-0.08433734939759037	2054.0	-0.4218181818181818	464.0	-0.025454545454545455	-28.0	-0.22755102040816327	223.0	1.522892527995625E12	1.522892528002E12	1675.78125	54912.0	0.0	0.0	
-0.5801526717557252	-28.0	0.42748091603053434	38.0	1.450381679389313	-95.0	-0.12048192771084337	1282.0	9.216867469879519	2057.0	-0.024096385542168676	2049.0	-0.4172727272727273	459.0	-0.02090909090909091	-23.0	-0.23163265306122452	227.0	1.5228925279995313E12	1.52289252801E12	1679.6875	55040.0	0.0	0.0	
-0.9312977099236641	-44.0	0.6717557251908397	61.0	1.4961832061068703	-98.0	-0.03614457831325302	1285.0	9.180722891566266	2050.0	0.012048192771084338	2046.0	-0.41363636363636364	455.0	-0.024545454545454544	-27.0	-0.22551020408163266	221.0	1.5228925280034375E12	1.522892528011E12	1683.59375	55168.0	0.0	0.0	
-0.6412213740458015	-14.0	0.21374045801526717	42.0	1.6030534351145038	-105.0	0.0	1285.0	9.180722891566266	2047.0	0.012048192771084338	2046.0	-0.4209090909090909	463.0	-0.02	-22.0	-0.22653061224489798	222.0	1.5228925280073438E12	1.522892528012E12	1687.5	55296.0	0.0	0.0	
-0.8854961832061068	-31.0	0.47328244274809156	58.0	1.6030534351145038	-105.0	0.024096385542168676	1287.0	9.156626506024097	2045.0	0.060240963855421686	2042.0	-0.41818181818181815	460.0	-0.023636363636363636	-26.0	-0.22551020408163266	221.0	1.52289252801125E12	1.522892528023E12	1691.40625	55424.0	0.0	0.0	
-0.6106870229007634	-31.0	0.47328244274809156	40.0	1.5725190839694656	-103.0	-0.060240963855421686	1286.0	9.168674698795181	2052.0	0.024096385542168676	2045.0	-0.4218181818181818	464.0	-0.013636363636363636	-15.0	-0.22653061224489798	222.0	1.5228925280151563E12	1.522892528024E12	1695.3125	55552.0	0.0	0.0	
-0.4580152671755725	-38.0	0.5801526717557252	30.0	1.618320610687023	-106.0	-0.12048192771084337	1282.0	9.216867469879519	2057.0	-0.04819277108433735	2051.0	-0.4218181818181818	464.0	-0.02181818181818182	-24.0	-0.22755102040816327	223.0	1.5228925280190625E12	1.522892528026E12	1699.21875	55680.0	0.0	0.0	
-0.33587786259541985	-27.0	0.41221374045801523	22.0	1.8931297709923662	-124.0	-0.08433734939759037	1283.0	9.204819277108435	2054.0	-0.012048192771084338	2048.0	-0.41818181818181815	460.0	-0.02181818181818182	-24.0	-0.22755102040816327	223.0	1.5228925280229688E12	1.522892528036E12	1703.125	55808.0	0.0	0.0	
-0.8244274809160305	-30.0	0.4580152671755725	54.0	1.5572519083969465	-102.0	-0.08433734939759037	1287.0	9.156626506024097	2054.0	0.024096385542168676	2045.0	-0.4209090909090909	463.0	-0.01818181818181818	-20.0	-0.2295918367346939	225.0	1.522892528026875E12	1.522892528037E12	1707.03125	55936.0	0.0	0.0	
-0.8396946564885496	-17.0	0.2595419847328244	55.0	1.648854961832061	-108.0	-0.060240963855421686	1282.0	9.216867469879519	2052.0	0.03614457831325302	2044.0	-0.42454545454545456	467.0	-0.017272727272727273	-19.0	-0.22244897959183677	218.0	1.5228925280307813E12	1.522892528038E12	1710.9375	56064.0	0.0	0.0	
-0.7480916030534351	-28.0	0.42748091603053434	49.0	1.648854961832061	-108.0	-0.024096385542168676	1283.0	9.204819277108435	2049.0	0.0	2047.0	-0.42363636363636364	466.0	-0.025454545454545455	-28.0	-0.2295918367346939	225.0	1.5228925280346875E12	1.522892528043E12	1714.84375	56192.0	0.0	0.0	
-0.7175572519083969	-14.0	0.21374045801526717	47.0	1.6793893129770991	-110.0	0.0	1285.0	9.180722891566266	2047.0	0.012048192771084338	2046.0	-0.4127272727272727	454.0	-0.00909090909090909	-10.0	-0.22346938775510206	219.0	1.5228925280385938E12	1.522892528044E12	1718.75	56320.0	0.0	0.0	
-0.6412213740458015	-19.0	0.2900763358778626	42.0	1.7709923664122136	-116.0	0.0	1285.0	9.180722891566266	2047.0	0.024096385542168676	2045.0	-0.42454545454545456	467.0	-0.01818181818181818	-20.0	-0.22244897959183677	218.0	1.5228925280425E12	1.522892528045E12	1722.65625	56448.0	0.0	0.0	
-0.5343511450381679	-29.0	0.4427480916030534	35.0	1.8931297709923662	-124.0	0.04819277108433735	1284.0	9.19277108433735	2043.0	-0.03614457831325302	2050.0	-0.42454545454545456	467.0	-0.01818181818181818	-20.0	-0.22244897959183677	218.0	1.5228925280464063E12	1.522892528056E12	1726.5625	56576.0	0.0	0.0	
-0.7633587786259541	-25.0	0.38167938931297707	50.0	1.6793893129770991	-110.0	0.08433734939759037	1283.0	9.204819277108435	2040.0	-0.060240963855421686	2052.0	-0.42272727272727273	465.0	-0.025454545454545455	-28.0	-0.2306122448979592	226.0	1.5228925280503125E12	1.522892528057E12	1730.46875	56704.0	0.0	0.0	
-0.6564885496183206	-20.0	0.3053435114503817	43.0	1.5877862595419847	-104.0	0.08433734939759037	1283.0	9.204819277108435	2040.0	-0.060240963855421686	2052.0	-0.4163636363636364	458.0	-0.013636363636363636	-15.0	-0.22755102040816327	223.0	1.5228925280542188E12	1.522892528058E12	1734.375	56832.0	0.0	0.0	
-0.564885496183206	-33.0	0.5038167938931297	37.0	1.7251908396946565	-113.0	0.08433734939759037	1283.0	9.204819277108435	2040.0	-0.07228915662650603	2053.0	-0.41363636363636364	455.0	-0.0018181818181818182	-2.0	-0.22244897959183677	218.0	1.522892528058125E12	1.52289252806E12	1738.28125	56960.0	0.0	0.0	
-0.549618320610687	-43.0	0.6564885496183206	36.0	1.6030534351145038	-105.0	0.0963855421686747	1283.0	9.204819277108435	2039.0	-0.0963855421686747	2055.0	-0.42	462.0	-0.008181818181818182	-9.0	-0.22653061224489798	222.0	1.5228925280620313E12	1.522892528076E12	1742.1875	57088.0	0.0	0.0	
-0.7175572519083969	-33.0	0.5038167938931297	47.0	1.6030534351145038	-105.0	0.0963855421686747	1283.0	9.204819277108435	2039.0	-0.08433734939759037	2054.0	-0.4172727272727273	459.0	-0.011818181818181818	-13.0	-0.22653061224489798	222.0	1.5228925280659375E12	1.522892528077E12	1746.09375	57216.0	0.0	0.0	
-0.7786259541984732	-46.0	0.7022900763358778	51.0	1.5114503816793892	-99.0	0.08433734939759037	1284.0	9.19277108433735	2040.0	-0.060240963855421686	2052.0	-0.4163636363636364	458.0	-0.02181818181818182	-24.0	-0.22653061224489798	222.0	1.5228925280698438E12	1.522892528079E12	1750.0	57344.0	0.0	0.0	
-0.5343511450381679	-38.0	0.5801526717557252	35.0	1.5419847328244274	-101.0	0.03614457831325302	1283.0	9.204819277108435	2044.0	-0.07228915662650603	2053.0	-0.4163636363636364	458.0	-0.02181818181818182	-24.0	-0.22653061224489798	222.0	1.52289252807375E12	1.522892528111E12	1753.90625	57472.0	0.0	0.0	
-0.6412213740458015	-39.0	0.5954198473282443	42.0	1.3282442748091603	-87.0	0.04819277108433735	1284.0	9.19277108433735	2043.0	-0.08433734939759037	2054.0	-0.42454545454545456	467.0	-0.02	-22.0	-0.22755102040816327	223.0	1.5228925280776563E12	1.522892528113E12	1757.8125	57600.0	0.0	0.0	
-0.5801526717557252	-37.0	0.564885496183206	38.0	1.5572519083969465	-102.0	0.03614457831325302	1283.0	9.204819277108435	2044.0	-0.060240963855421686	2052.0	-0.41818181818181815	460.0	-0.01090909090909091	-12.0	-0.22448979591836737	220.0	1.5228925280815625E12	1.522892528115E12	1761.71875	57728.0	0.0	0.0	
-0.6717557251908397	-50.0	0.7633587786259541	44.0	1.5572519083969465	-102.0	0.012048192771084338	1282.0	9.216867469879519	2046.0	-0.07228915662650603	2053.0	-0.42363636363636364	466.0	-0.02727272727272727	-30.0	-0.22346938775510206	219.0	1.5228925280854688E12	1.522892528116E12	1765.625	57856.0	0.0	0.0	
-0.8396946564885496	-46.0	0.7022900763358778	55.0	1.450381679389313	-95.0	0.0	1285.0	9.180722891566266	2047.0	-0.060240963855421686	2052.0	-0.4218181818181818	464.0	-0.01818181818181818	-20.0	-0.22244897959183677	218.0	1.522892528089375E12	1.522892528117E12	1769.53125	57984.0	0.0	0.0	
-0.916030534351145	-56.0	0.8549618320610687	60.0	1.5114503816793892	-99.0	-0.024096385542168676	1284.0	9.19277108433735	2049.0	-0.04819277108433735	2051.0	-0.41909090909090907	461.0	-0.016363636363636365	-18.0	-0.22755102040816327	223.0	1.5228925280932813E12	1.522892528119E12	1773.4375	58112.0	0.0	0.0	
-0.8091603053435115	-43.0	0.6564885496183206	53.0	1.5725190839694656	-103.0	-0.012048192771084338	1284.0	9.19277108433735	2048.0	-0.012048192771084338	2048.0	-0.42363636363636364	466.0	-0.025454545454545455	-28.0	-0.22653061224489798	222.0	1.5228925280971875E12	1.52289252812E12	1777.34375	58240.0	0.0	0.0	
-0.7480916030534351	-35.0	0.5343511450381679	49.0	1.618320610687023	-106.0	-0.012048192771084338	1284.0	9.19277108433735	2048.0	0.0	2047.0	-0.42363636363636364	466.0	-0.025454545454545455	-28.0	-0.22653061224489798	222.0	1.5228925281010938E12	1.522892528122E12	1781.25	58368.0	0.0	0.0	
-0.7938931297709924	-37.0	0.564885496183206	52.0	1.5114503816793892	-99.0	0.012048192771084338	1285.0	9.180722891566266	2046.0	-0.03614457831325302	2050.0	-0.4209090909090909	463.0	-0.019090909090909092	-21.0	-0.2295918367346939	225.0	1.522892528105E12	1.522892528123E12	1785.15625	58496.0	0.0	0.0	
-0.6717557251908397	-31.0	0.47328244274809156	44.0	1.618320610687023	-106.0	0.012048192771084338	1284.0	9.19277108433735	2046.0	-0.03614457831325302	2050.0	-0.41909090909090907	461.0	-0.017272727272727273	-19.0	-0.2285714285714286	224.0	1.5228925281089063E12	1.522892528124E12	1789.0625	58624.0	0.0	0.0	
-0.8244274809160305	-32.0	0.48854961832061067	54.0	1.450381679389313	-95.0	0.012048192771084338	1282.0	9.216867469879519	2046.0	-0.08433734939759037	2054.0	-0.42363636363636364	466.0	-0.026363636363636363	-29.0	-0.22244897959183677	218.0	1.5228925281128125E12	1.522892528124E12	1792.96875	58752.0	0.0	0.0	
-0.7786259541984732	-27.0	0.41221374045801523	51.0	1.648854961832061	-108.0	0.0	1283.0	9.204819277108435	2047.0	-0.08433734939759037	2054.0	-0.41454545454545455	456.0	-0.02090909090909091	-23.0	-0.2295918367346939	225.0	1.5228925281167188E12	1.522892528125E12	1796.875	58880.0	0.0	0.0	
-0.8854961832061068	-39.0	0.5954198473282443	58.0	1.6335877862595418	-107.0	0.03614457831325302	1284.0	9.19277108433735	2044.0	-0.060240963855421686	2052.0	-0.41909090909090907	461.0	-0.016363636363636365	-18.0	-0.22551020408163266	221.0	1.522892528120625E12	1.522892528134E12	1800.78125	59008.0	0.0	0.0	
-0.9923664122137404	-36.0	0.549618320610687	65.0	1.4961832061068703	-98.0	0.060240963855421686	1284.0	9.19277108433735	2042.0	-0.04819277108433735	2051.0	-0.41454545454545455	456.0	-0.005454545454545455	-6.0	-0.2295918367346939	225.0	1.5228925281245313E12	1.522892528134E12	1804.6875	59136.0	0.0	0.0	
-0.9007633587786259	-56.0	0.8549618320610687	59.0	1.6030534351145038	-105.0	0.04819277108433735	1284.0	9.19277108433735	2043.0	-0.04819277108433735	2051.0	-0.41454545454545455	456.0	-0.005454545454545455	-6.0	-0.2295918367346939	225.0	1.5228925281284375E12	1.522892528135E12	1808.59375	59264.0	0.0	0.0	
-1.0076335877862594	-52.0	0.7938931297709924	66.0	1.5877862595419847	-104.0	0.024096385542168676	1284.0	9.19277108433735	2045.0	-0.03614457831325302	2050.0	-0.4172727272727273	459.0	-0.02	-22.0	-0.22448979591836737	220.0	1.5228925281323438E12	1.522892528141E12	1812.5	59392.0	0.0	0.0	
-0.9007633587786259	-45.0	0.6870229007633587	59.0	1.7099236641221374	-112.0	0.024096385542168676	1284.0	9.19277108433735	2045.0	-0.03614457831325302	2050.0	-0.41	451.0	-0.006363636363636364	-7.0	-0.2295918367346939	225.0	1.52289252813625E12	1.522892528142E12	1816.40625	59520.0	0.0	0.0	
-0.8244274809160305	-43.0	0.6564885496183206	54.0	1.6335877862595418	-107.0	0.060240963855421686	1283.0	9.204819277108435	2042.0	-0.060240963855421686	2052.0	-0.4209090909090909	463.0	-0.02727272727272727	-30.0	-0.22551020408163266	221.0	1.5228925281401563E12	1.522892528143E12	1820.3125	59648.0	0.0	0.0	
