left thigh	left thigh	left thigh	left thigh	left thigh	left thigh	left thigh	left thigh	left thigh	left thigh	left thigh	left thigh	left thigh	left thigh	left thigh	left thigh	left thigh	left thigh	left thigh	left thigh	left thigh	left thigh	Annotation	Annotation	
Gyroscope X	Gyroscope X	Gyroscope Y	Gyroscope Y	Gyroscope Z	Gyroscope Z	Low Noise Accelerometer X	Low Noise Accelerometer X	Low Noise Accelerometer Y	Low Noise Accelerometer Y	Low Noise Accelerometer Z	Low Noise Accelerometer Z	Magnetometer X	Magnetometer X	Magnetometer Y	Magnetometer Y	Magnetometer Z	Magnetometer Z	SyncTimestamp	SystemTimestamp	Timestamp	Timestamp	Level	Pulse	
CAL	RAW	CAL	RAW	CAL	RAW	CAL	RAW	CAL	RAW	CAL	RAW	CAL	RAW	CAL	RAW	CAL	RAW	CAL	UNCAL	CAL	RAW	no format	no format	
deg/s	No Units	deg/s	No Units	deg/s	No Units	m/s^2	No Units	m/s^2	No Units	m/s^2	No Units	local flux	No Units	local flux	No Units	local flux	No Units	mSecs	mSecs	mSecs	No Units	no unit	no unit	
-0.5954198473282443	-13.0	0.1984732824427481	39.0	1.5572519083969465	-102.0	0.04819277108433735	1283.0	9.204819277108435	2043.0	0.3373493975903615	2019.0	-0.4081818181818182	449.0	-0.015454545454545455	-17.0	-0.23469387755102042	230.0	1.5228925951565625E12	1.522892595169E12	839.84375	27520.0	0.0	0.0	
-0.564885496183206	-9.0	0.13740458015267176	37.0	1.648854961832061	-108.0	0.07228915662650603	1283.0	9.204819277108435	2041.0	0.28915662650602414	2023.0	-0.4127272727272727	454.0	-0.02	-22.0	-0.23775510204081635	233.0	1.5228925951604688E12	1.522892595171E12	843.75	27648.0	0.0	0.0	
-0.48854961832061067	-21.0	0.32061068702290074	32.0	1.5419847328244274	-101.0	0.060240963855421686	1284.0	9.19277108433735	2042.0	0.2530120481927711	2026.0	-0.40545454545454546	446.0	-0.011818181818181818	-13.0	-0.2326530612244898	228.0	1.522892595164375E12	1.522892595211E12	847.65625	27776.0	0.0	0.0	
-0.38167938931297707	-16.0	0.24427480916030533	25.0	1.618320610687023	-106.0	0.060240963855421686	1283.0	9.204819277108435	2042.0	0.24096385542168675	2027.0	-0.40636363636363637	447.0	-0.005454545454545455	-6.0	-0.2306122448979592	226.0	1.5228925951682813E12	1.522892595211E12	851.5625	27904.0	0.0	0.0	
-0.564885496183206	3.0	-0.04580152671755725	37.0	1.3740458015267174	-90.0	0.04819277108433735	1284.0	9.19277108433735	2043.0	0.21686746987951808	2029.0	-0.4118181818181818	453.0	-0.02090909090909091	-23.0	-0.23367346938775513	229.0	1.5228925951721875E12	1.522892595212E12	855.46875	28032.0	0.0	0.0	
-0.4427480916030534	2.0	-0.030534351145038167	29.0	1.5419847328244274	-101.0	0.060240963855421686	1284.0	9.19277108433735	2042.0	0.1927710843373494	2031.0	-0.40454545454545454	445.0	-0.02	-22.0	-0.23877551020408166	234.0	1.5228925951760938E12	1.522892595213E12	859.375	28160.0	0.0	0.0	
-0.5190839694656488	-10.0	0.15267175572519084	34.0	1.4809160305343512	-97.0	0.04819277108433735	1284.0	9.19277108433735	2043.0	0.1927710843373494	2031.0	-0.3990909090909091	439.0	-0.007272727272727273	-8.0	-0.23469387755102042	230.0	1.52289259518E12	1.522892595214E12	863.28125	28288.0	0.0	0.0	
-0.564885496183206	-24.0	0.366412213740458	37.0	1.6030534351145038	-105.0	0.08433734939759037	1285.0	9.180722891566266	2040.0	0.1927710843373494	2031.0	-0.3990909090909091	439.0	-0.007272727272727273	-8.0	-0.23469387755102042	230.0	1.5228925951839063E12	1.522892595215E12	867.1875	28416.0	0.0	0.0	
-0.5343511450381679	-22.0	0.33587786259541985	35.0	1.5725190839694656	-103.0	0.08433734939759037	1285.0	9.180722891566266	2040.0	0.18072289156626506	2032.0	-0.4036363636363636	444.0	0.0018181818181818182	2.0	-0.23469387755102042	230.0	1.5228925951878125E12	1.522892595228E12	871.09375	28544.0	0.0	0.0	
-0.41221374045801523	-31.0	0.47328244274809156	27.0	1.6946564885496183	-111.0	0.0963855421686747	1283.0	9.204819277108435	2039.0	0.1566265060240964	2034.0	-0.40636363636363637	447.0	-0.01818181818181818	-20.0	-0.23469387755102042	230.0	1.5228925951917188E12	1.522892595228E12	875.0	28672.0	0.0	0.0	
-0.6106870229007634	-34.0	0.5190839694656488	40.0	1.5725190839694656	-103.0	0.07228915662650603	1283.0	9.204819277108435	2041.0	0.1566265060240964	2034.0	-0.41545454545454547	457.0	-0.011818181818181818	-13.0	-0.23163265306122452	227.0	1.522892595195625E12	1.522892595229E12	878.90625	28800.0	0.0	0.0	
-0.732824427480916	-37.0	0.564885496183206	48.0	1.5419847328244274	-101.0	0.060240963855421686	1283.0	9.204819277108435	2042.0	0.1566265060240964	2034.0	-0.41363636363636364	455.0	-0.02	-22.0	-0.23469387755102042	230.0	1.5228925951995313E12	1.522892595229E12	882.8125	28928.0	0.0	0.0	
-0.7480916030534351	-34.0	0.5190839694656488	49.0	1.3435114503816794	-88.0	0.060240963855421686	1284.0	9.19277108433735	2042.0	0.1566265060240964	2034.0	-0.4081818181818182	449.0	-0.023636363636363636	-26.0	-0.23673469387755103	232.0	1.5228925952034375E12	1.522892595229E12	886.71875	29056.0	0.0	0.0	
-0.5954198473282443	-30.0	0.4580152671755725	39.0	1.3129770992366412	-86.0	0.07228915662650603	1284.0	9.19277108433735	2041.0	0.1927710843373494	2031.0	-0.4118181818181818	453.0	-0.01	-11.0	-0.2306122448979592	226.0	1.5228925952073438E12	1.52289259523E12	890.625	29184.0	0.0	0.0	
-0.7633587786259541	-33.0	0.5038167938931297	50.0	1.3587786259541985	-89.0	0.03614457831325302	1284.0	9.19277108433735	2044.0	0.21686746987951808	2029.0	-0.4118181818181818	453.0	-0.01	-11.0	-0.2306122448979592	226.0	1.52289259521125E12	1.52289259523E12	894.53125	29312.0	0.0	0.0	
-0.6717557251908397	-33.0	0.5038167938931297	44.0	1.4045801526717556	-92.0	0.0	1283.0	9.204819277108435	2047.0	0.22891566265060243	2028.0	-0.4081818181818182	449.0	-0.02181818181818182	-24.0	-0.23673469387755103	232.0	1.5228925952151563E12	1.52289259523E12	898.4375	29440.0	0.0	0.0	
-0.564885496183206	-50.0	0.7633587786259541	37.0	1.450381679389313	-95.0	-0.012048192771084338	1285.0	9.180722891566266	2048.0	0.22891566265060243	2028.0	-0.41	451.0	-0.024545454545454544	-27.0	-0.23673469387755103	232.0	1.5228925952190625E12	1.522892595231E12	902.34375	29568.0	0.0	0.0	
-0.6870229007633587	-40.0	0.6106870229007634	45.0	1.450381679389313	-95.0	-0.03614457831325302	1284.0	9.19277108433735	2050.0	0.24096385542168675	2027.0	-0.4118181818181818	453.0	-0.015454545454545455	-17.0	-0.23571428571428574	231.0	1.5228925952229688E12	1.522892595237E12	906.25	29696.0	0.0	0.0	
-0.7786259541984732	-44.0	0.6717557251908397	51.0	1.5114503816793892	-99.0	0.03614457831325302	1284.0	9.19277108433735	2044.0	0.20481927710843376	2030.0	-0.4081818181818182	449.0	-0.005454545454545455	-6.0	-0.22755102040816327	223.0	1.522892595226875E12	1.522892595237E12	910.15625	29824.0	0.0	0.0	
-0.6870229007633587	-44.0	0.6717557251908397	45.0	1.618320610687023	-106.0	0.03614457831325302	1283.0	9.204819277108435	2044.0	0.21686746987951808	2029.0	-0.41	451.0	-0.008181818181818182	-9.0	-0.2285714285714286	224.0	1.5228925952307813E12	1.522892595238E12	914.0625	29952.0	0.0	0.0	
-0.7175572519083969	-24.0	0.366412213740458	47.0	1.2671755725190839	-83.0	0.012048192771084338	1284.0	9.19277108433735	2046.0	0.2530120481927711	2026.0	-0.4036363636363636	444.0	-0.014545454545454545	-16.0	-0.23163265306122452	227.0	1.5228925952346875E12	1.522892595247E12	917.96875	30080.0	0.0	0.0	
-0.6564885496183206	-34.0	0.5190839694656488	43.0	1.3587786259541985	-89.0	-0.012048192771084338	1283.0	9.204819277108435	2048.0	0.24096385542168675	2027.0	-0.4036363636363636	444.0	-0.014545454545454545	-16.0	-0.23163265306122452	227.0	1.5228925952385938E12	1.522892595248E12	921.875	30208.0	0.0	0.0	
-0.5343511450381679	-42.0	0.6412213740458015	35.0	1.2519083969465647	-82.0	-0.10843373493975904	1284.0	9.19277108433735	2056.0	0.24096385542168675	2027.0	-0.4081818181818182	449.0	-0.012727272727272728	-14.0	-0.23571428571428574	231.0	1.5228925952425E12	1.52289259525E12	925.78125	30336.0	0.0	0.0	
-0.4427480916030534	-27.0	0.41221374045801523	29.0	1.297709923664122	-85.0	-0.13253012048192772	1283.0	9.204819277108435	2058.0	0.26506024096385544	2025.0	-0.40545454545454546	446.0	-0.013636363636363636	-15.0	-0.23163265306122452	227.0	1.5228925952464063E12	1.522892595259E12	929.6875	30464.0	0.0	0.0	
-0.6259541984732824	-36.0	0.549618320610687	41.0	1.5114503816793892	-99.0	-0.10843373493975904	1285.0	9.180722891566266	2056.0	0.2530120481927711	2026.0	-0.41363636363636364	455.0	-0.015454545454545455	-17.0	-0.2306122448979592	226.0	1.5228925952503125E12	1.522892595261E12	933.59375	30592.0	0.0	0.0	
-0.21374045801526717	-8.0	0.12213740458015267	14.0	1.4961832061068703	-98.0	0.0	1285.0	9.180722891566266	2047.0	0.2530120481927711	2026.0	-0.41	451.0	-0.02090909090909091	-23.0	-0.23673469387755103	232.0	1.5228925952542188E12	1.522892595262E12	937.5	30720.0	0.0	0.0	
-0.2900763358778626	-19.0	0.2900763358778626	19.0	1.4961832061068703	-98.0	0.060240963855421686	1285.0	9.180722891566266	2042.0	0.21686746987951808	2029.0	-0.4090909090909091	450.0	-0.005454545454545455	-6.0	-0.23367346938775513	229.0	1.522892595258125E12	1.522892595272E12	941.40625	30848.0	0.0	0.0	
-0.6717557251908397	-31.0	0.47328244274809156	44.0	1.4351145038167938	-94.0	0.04819277108433735	1284.0	9.19277108433735	2043.0	0.21686746987951808	2029.0	-0.4163636363636364	458.0	-0.014545454545454545	-16.0	-0.23163265306122452	227.0	1.5228925952620313E12	1.522892595273E12	945.3125	30976.0	0.0	0.0	
-0.564885496183206	-37.0	0.564885496183206	37.0	1.2213740458015268	-80.0	0.012048192771084338	1283.0	9.204819277108435	2046.0	0.1927710843373494	2031.0	-0.4163636363636364	458.0	-0.014545454545454545	-16.0	-0.23163265306122452	227.0	1.5228925952659375E12	1.522892595274E12	949.21875	31104.0	0.0	0.0	
-0.3969465648854962	-39.0	0.5954198473282443	26.0	1.465648854961832	-96.0	-0.04819277108433735	1282.0	9.216867469879519	2051.0	0.21686746987951808	2029.0	-0.41	451.0	-0.02090909090909091	-23.0	-0.23775510204081635	233.0	1.5228925952698438E12	1.522892595282E12	953.125	31232.0	0.0	0.0	
-0.6717557251908397	-21.0	0.32061068702290074	44.0	1.3129770992366412	-86.0	-0.10843373493975904	1282.0	9.216867469879519	2056.0	0.22891566265060243	2028.0	-0.4027272727272727	443.0	-0.015454545454545455	-17.0	-0.23367346938775513	229.0	1.52289259527375E12	1.522892595283E12	957.03125	31360.0	0.0	0.0	
-0.6106870229007634	-37.0	0.564885496183206	40.0	1.5267175572519083	-100.0	-0.13253012048192772	1284.0	9.19277108433735	2058.0	0.26506024096385544	2025.0	-0.41545454545454547	457.0	-0.015454545454545455	-17.0	-0.2306122448979592	226.0	1.5228925952776563E12	1.522892595284E12	960.9375	31488.0	0.0	0.0	
-0.24427480916030533	-28.0	0.42748091603053434	16.0	1.4198473282442747	-93.0	-0.08433734939759037	1284.0	9.19277108433735	2054.0	0.26506024096385544	2025.0	-0.41363636363636364	455.0	-0.02181818181818182	-24.0	-0.23673469387755103	232.0	1.5228925952815625E12	1.522892595294E12	964.84375	31616.0	0.0	0.0	
-0.4580152671755725	-4.0	0.061068702290076333	30.0	1.648854961832061	-108.0	-0.012048192771084338	1284.0	9.19277108433735	2048.0	0.2530120481927711	2026.0	-0.41363636363636364	455.0	-0.011818181818181818	-13.0	-0.2326530612244898	228.0	1.5228925952854688E12	1.522892595295E12	968.75	31744.0	0.0	0.0	
-0.47328244274809156	-17.0	0.2595419847328244	31.0	1.8625954198473282	-122.0	0.03614457831325302	1285.0	9.180722891566266	2044.0	0.22891566265060243	2028.0	-0.41363636363636364	455.0	-0.019090909090909092	-21.0	-0.2285714285714286	224.0	1.522892595289375E12	1.522892595296E12	972.65625	31872.0	0.0	0.0	
-0.21374045801526717	-20.0	0.3053435114503817	14.0	1.4961832061068703	-98.0	0.08433734939759037	1284.0	9.19277108433735	2040.0	0.20481927710843376	2030.0	-0.41363636363636364	455.0	-0.019090909090909092	-21.0	-0.2285714285714286	224.0	1.5228925952932813E12	1.522892595307E12	976.5625	32000.0	0.0	0.0	
-0.41221374045801523	-43.0	0.6564885496183206	27.0	1.5267175572519083	-100.0	0.060240963855421686	1285.0	9.180722891566266	2042.0	0.18072289156626506	2032.0	-0.41	451.0	-0.0027272727272727275	-3.0	-0.2306122448979592	226.0	1.5228925952971875E12	1.522892595308E12	980.46875	32128.0	0.0	0.0	
-0.3969465648854962	-41.0	0.6259541984732824	26.0	1.6946564885496183	-111.0	0.012048192771084338	1284.0	9.19277108433735	2046.0	0.14457831325301207	2035.0	-0.4090909090909091	450.0	-0.007272727272727273	-8.0	-0.23469387755102042	230.0	1.5228925953010938E12	1.522892595308E12	984.375	32256.0	0.0	0.0	
-0.549618320610687	-32.0	0.48854961832061067	36.0	1.3587786259541985	-89.0	0.0	1284.0	9.19277108433735	2047.0	0.14457831325301207	2035.0	-0.4118181818181818	453.0	-0.02	-22.0	-0.23571428571428574	231.0	1.522892595305E12	1.522892595309E12	988.28125	32384.0	0.0	0.0	
-0.4427480916030534	-17.0	0.2595419847328244	29.0	1.5267175572519083	-100.0	0.012048192771084338	1284.0	9.19277108433735	2046.0	0.18072289156626506	2032.0	-0.4127272727272727	454.0	-0.02181818181818182	-24.0	-0.23469387755102042	230.0	1.5228925953089063E12	1.522892595322E12	992.1875	32512.0	0.0	0.0	
-0.3511450381679389	-25.0	0.38167938931297707	23.0	1.618320610687023	-106.0	0.04819277108433735	1283.0	9.204819277108435	2043.0	0.14457831325301207	2035.0	-0.4081818181818182	449.0	-0.008181818181818182	-9.0	-0.23673469387755103	232.0	1.5228925953128125E12	1.522892595323E12	996.09375	32640.0	0.0	0.0	
-0.38167938931297707	-36.0	0.549618320610687	25.0	1.6793893129770991	-110.0	0.08433734939759037	1284.0	9.19277108433735	2040.0	0.13253012048192772	2036.0	-0.4081818181818182	449.0	-0.019090909090909092	-21.0	-0.23469387755102042	230.0	1.5228925953167188E12	1.522892595323E12	1000.0	32768.0	0.0	0.0	
-0.2900763358778626	-25.0	0.38167938931297707	19.0	1.5419847328244274	-101.0	0.1566265060240964	1282.0	9.216867469879519	2034.0	0.10843373493975904	2038.0	-0.41363636363636364	455.0	-0.019090909090909092	-21.0	-0.23469387755102042	230.0	1.522892595320625E12	1.522892595362E12	1003.90625	32896.0	0.0	0.0	
-0.42748091603053434	-29.0	0.4427480916030534	28.0	1.4045801526717556	-92.0	0.14457831325301207	1281.0	9.228915662650603	2035.0	0.07228915662650603	2041.0	-0.4081818181818182	449.0	-0.011818181818181818	-13.0	-0.2306122448979592	226.0	1.5228925953245313E12	1.522892595363E12	1007.8125	33024.0	0.0	0.0	
-0.2595419847328244	-37.0	0.564885496183206	17.0	1.3282442748091603	-87.0	0.10843373493975904	1285.0	9.180722891566266	2038.0	0.012048192771084338	2046.0	-0.4072727272727273	448.0	-0.01	-11.0	-0.23877551020408166	234.0	1.5228925953284375E12	1.522892595365E12	1011.71875	33152.0	0.0	0.0	
-0.32061068702290074	-34.0	0.5190839694656488	21.0	1.4045801526717556	-92.0	0.060240963855421686	1285.0	9.180722891566266	2042.0	0.0	2047.0	-0.40636363636363637	447.0	-9.090909090909091E-4	-1.0	-0.22448979591836737	220.0	1.5228925953323438E12	1.522892595366E12	1015.625	33280.0	0.0	0.0	
-0.4427480916030534	-46.0	0.7022900763358778	29.0	1.282442748091603	-84.0	0.07228915662650603	1285.0	9.180722891566266	2041.0	0.024096385542168676	2045.0	-0.4109090909090909	452.0	-0.022727272727272728	-25.0	-0.23571428571428574	231.0	1.52289259533625E12	1.522892595367E12	1019.53125	33408.0	0.0	0.0	
-0.5954198473282443	-40.0	0.6106870229007634	39.0	1.3740458015267174	-90.0	0.12048192771084337	1285.0	9.180722891566266	2037.0	0.03614457831325302	2044.0	-0.41	451.0	-0.00909090909090909	-10.0	-0.23673469387755103	232.0	1.5228925953401563E12	1.522892595368E12	1023.4375	33536.0	0.0	0.0	
-0.42748091603053434	-38.0	0.5801526717557252	28.0	1.5114503816793892	-99.0	0.12048192771084337	1283.0	9.204819277108435	2037.0	0.04819277108433735	2043.0	-0.41	451.0	-0.00909090909090909	-10.0	-0.23673469387755103	232.0	1.5228925953440625E12	1.522892595369E12	1027.34375	33664.0	0.0	0.0	
-0.7633587786259541	-46.0	0.7022900763358778	50.0	1.2671755725190839	-83.0	0.1566265060240964	1284.0	9.19277108433735	2034.0	0.060240963855421686	2042.0	-0.4127272727272727	454.0	-0.02	-22.0	-0.2326530612244898	228.0	1.5228925953479688E12	1.52289259537E12	1031.25	33792.0	0.0	0.0	
-0.4580152671755725	-53.0	0.8091603053435115	30.0	1.282442748091603	-84.0	0.1566265060240964	1285.0	9.180722891566266	2034.0	0.08433734939759037	2040.0	-0.4036363636363636	444.0	-0.011818181818181818	-13.0	-0.23571428571428574	231.0	1.522892595351875E12	1.522892595371E12	1035.15625	33920.0	0.0	0.0	
-0.6106870229007634	-52.0	0.7938931297709924	40.0	1.2519083969465647	-82.0	0.13253012048192772	1283.0	9.204819277108435	2036.0	0.04819277108433735	2043.0	-0.41	451.0	-0.01090909090909091	-12.0	-0.23367346938775513	229.0	1.5228925953557813E12	1.522892595375E12	1039.0625	34048.0	0.0	0.0	
-0.549618320610687	-38.0	0.5801526717557252	36.0	1.1603053435114503	-76.0	0.10843373493975904	1283.0	9.204819277108435	2038.0	0.04819277108433735	2043.0	-0.4127272727272727	454.0	-0.02090909090909091	-23.0	-0.23367346938775513	229.0	1.5228925953596875E12	1.522892595375E12	1042.96875	34176.0	0.0	0.0	
-0.8244274809160305	-43.0	0.6564885496183206	54.0	1.0229007633587786	-67.0	0.10843373493975904	1285.0	9.180722891566266	2038.0	0.07228915662650603	2041.0	-0.40545454545454546	446.0	-0.01	-11.0	-0.23571428571428574	231.0	1.5228925953635938E12	1.522892595376E12	1046.875	34304.0	0.0	0.0	
-0.6259541984732824	-39.0	0.5954198473282443	41.0	1.1450381679389312	-75.0	0.10843373493975904	1285.0	9.180722891566266	2038.0	0.08433734939759037	2040.0	-0.4090909090909091	450.0	-0.00909090909090909	-10.0	-0.2285714285714286	224.0	1.5228925953675E12	1.522892595387E12	1050.78125	34432.0	0.0	0.0	
-0.7786259541984732	-36.0	0.549618320610687	51.0	1.083969465648855	-71.0	0.10843373493975904	1285.0	9.180722891566266	2038.0	0.10843373493975904	2038.0	-0.4090909090909091	450.0	-0.00909090909090909	-10.0	-0.2285714285714286	224.0	1.5228925953714063E12	1.522892595388E12	1054.6875	34560.0	0.0	0.0	
-0.8091603053435115	-36.0	0.549618320610687	53.0	1.2061068702290076	-79.0	0.1566265060240964	1285.0	9.180722891566266	2034.0	0.13253012048192772	2036.0	-0.40545454545454546	446.0	-0.015454545454545455	-17.0	-0.23469387755102042	230.0	1.5228925953753125E12	1.522892595392E12	1058.59375	34688.0	0.0	0.0	
-0.6564885496183206	-38.0	0.5801526717557252	43.0	1.083969465648855	-71.0	0.20481927710843376	1284.0	9.19277108433735	2030.0	0.12048192771084337	2037.0	-0.41	451.0	-0.011818181818181818	-13.0	-0.23163265306122452	227.0	1.5228925953792188E12	1.522892595393E12	1062.5	34816.0	0.0	0.0	
-0.4427480916030534	-54.0	0.8244274809160305	29.0	0.916030534351145	-60.0	0.24096385542168675	1286.0	9.168674698795181	2027.0	0.10843373493975904	2038.0	-0.41454545454545455	456.0	-0.016363636363636365	-18.0	-0.2326530612244898	228.0	1.522892595383125E12	1.522892595396E12	1066.40625	34944.0	0.0	0.0	
-0.5038167938931297	-58.0	0.8854961832061068	33.0	1.083969465648855	-71.0	0.21686746987951808	1282.0	9.216867469879519	2029.0	0.10843373493975904	2038.0	-0.4118181818181818	453.0	-0.0018181818181818182	-2.0	-0.22346938775510206	219.0	1.5228925953870313E12	1.522892595397E12	1070.3125	35072.0	0.0	0.0	
-0.41221374045801523	-60.0	0.916030534351145	27.0	0.7480916030534351	-49.0	0.16867469879518074	1283.0	9.204819277108435	2033.0	0.08433734939759037	2040.0	-0.4072727272727273	448.0	-0.013636363636363636	-15.0	-0.23571428571428574	231.0	1.5228925953909375E12	1.522892595403E12	1074.21875	35200.0	0.0	0.0	
-0.7480916030534351	-52.0	0.7938931297709924	49.0	0.8091603053435115	-53.0	0.14457831325301207	1284.0	9.19277108433735	2035.0	0.07228915662650603	2041.0	-0.41	451.0	-0.005454545454545455	-6.0	-0.23367346938775513	229.0	1.5228925953948438E12	1.522892595404E12	1078.125	35328.0	0.0	0.0	
-0.8091603053435115	-42.0	0.6412213740458015	53.0	0.7938931297709924	-52.0	0.18072289156626506	1283.0	9.204819277108435	2032.0	0.0963855421686747	2039.0	-0.41	451.0	-0.005454545454545455	-6.0	-0.23367346938775513	229.0	1.52289259539875E12	1.522892595405E12	1082.03125	35456.0	0.0	0.0	
-0.5954198473282443	-49.0	0.7480916030534351	39.0	0.8549618320610687	-56.0	0.20481927710843376	1286.0	9.168674698795181	2030.0	0.10843373493975904	2038.0	-0.4018181818181818	442.0	-0.0036363636363636364	-4.0	-0.23469387755102042	230.0	1.5228925954026563E12	1.522892595413E12	1085.9375	35584.0	0.0	0.0	
-0.6106870229007634	-58.0	0.8854961832061068	40.0	0.6717557251908397	-44.0	0.21686746987951808	1286.0	9.168674698795181	2029.0	0.10843373493975904	2038.0	-0.4072727272727273	448.0	-0.016363636363636365	-18.0	-0.23877551020408166	234.0	1.5228925954065625E12	1.522892595414E12	1089.84375	35712.0	0.0	0.0	
-0.6564885496183206	-61.0	0.9312977099236641	43.0	0.9007633587786259	-59.0	0.18072289156626506	1284.0	9.19277108433735	2032.0	0.08433734939759037	2040.0	-0.4109090909090909	452.0	-0.008181818181818182	-9.0	-0.23367346938775513	229.0	1.5228925954104688E12	1.522892595416E12	1093.75	35840.0	0.0	0.0	
-0.549618320610687	-53.0	0.8091603053435115	36.0	0.5343511450381679	-35.0	0.10843373493975904	1286.0	9.168674698795181	2038.0	0.024096385542168676	2045.0	-0.4127272727272727	454.0	-0.02090909090909091	-23.0	-0.2326530612244898	228.0	1.522892595414375E12	1.522892595426E12	1097.65625	35968.0	0.0	0.0	
-0.6259541984732824	-68.0	1.0381679389312977	41.0	0.6259541984732824	-41.0	0.03614457831325302	1285.0	9.180722891566266	2044.0	-0.012048192771084338	2048.0	-0.40545454545454546	446.0	-0.01818181818181818	-20.0	-0.23469387755102042	230.0	1.5228925954182813E12	1.522892595427E12	1101.5625	36096.0	0.0	0.0	
-0.7022900763358778	-60.0	0.916030534351145	46.0	0.6870229007633587	-45.0	-0.024096385542168676	1283.0	9.204819277108435	2049.0	-0.024096385542168676	2049.0	-0.4127272727272727	454.0	-0.01090909090909091	-12.0	-0.2295918367346939	225.0	1.5228925954221875E12	1.522892595429E12	1105.46875	36224.0	0.0	0.0	
-0.8244274809160305	-65.0	0.9923664122137404	54.0	0.8702290076335878	-57.0	-0.08433734939759037	1285.0	9.180722891566266	2054.0	-0.03614457831325302	2050.0	-0.4127272727272727	454.0	-0.01090909090909091	-12.0	-0.2295918367346939	225.0	1.5228925954260938E12	1.522892595441E12	1109.375	36352.0	0.0	0.0	
-0.8854961832061068	-57.0	0.8702290076335878	58.0	0.7633587786259541	-50.0	-0.0963855421686747	1283.0	9.204819277108435	2055.0	0.0	2047.0	-0.4118181818181818	453.0	-0.017272727272727273	-19.0	-0.2326530612244898	228.0	1.52289259543E12	1.522892595442E12	1113.28125	36480.0	0.0	0.0	
-1.083969465648855	-62.0	0.9465648854961831	71.0	0.8244274809160305	-54.0	-0.12048192771084337	1285.0	9.180722891566266	2057.0	0.012048192771084338	2046.0	-0.4109090909090909	452.0	-0.02	-22.0	-0.23469387755102042	230.0	1.5228925954339063E12	1.522892595443E12	1117.1875	36608.0	0.0	0.0	
-0.8702290076335878	-52.0	0.7938931297709924	57.0	0.8396946564885496	-55.0	-0.14457831325301207	1284.0	9.19277108433735	2059.0	0.04819277108433735	2043.0	-0.41454545454545455	456.0	-0.012727272727272728	-14.0	-0.2326530612244898	228.0	1.5228925954378125E12	1.522892595448E12	1121.09375	36736.0	0.0	0.0	
-1.1603053435114503	-47.0	0.7175572519083969	76.0	0.7786259541984732	-51.0	-0.16867469879518074	1284.0	9.19277108433735	2061.0	0.04819277108433735	2043.0	-0.4081818181818182	449.0	-0.007272727272727273	-8.0	-0.2285714285714286	224.0	1.5228925954417188E12	1.52289259545E12	1125.0	36864.0	0.0	0.0	
-0.8854961832061068	-66.0	1.0076335877862594	58.0	0.7633587786259541	-50.0	-0.24096385542168675	1284.0	9.19277108433735	2067.0	0.060240963855421686	2042.0	-0.4109090909090909	452.0	-0.017272727272727273	-19.0	-0.23571428571428574	231.0	1.522892595445625E12	1.522892595451E12	1128.90625	36992.0	0.0	0.0	
-0.916030534351145	-50.0	0.7633587786259541	60.0	0.8702290076335878	-57.0	-0.30120481927710846	1282.0	9.216867469879519	2072.0	0.060240963855421686	2042.0	-0.4118181818181818	453.0	-0.012727272727272728	-14.0	-0.2326530612244898	228.0	1.5228925954495313E12	1.522892595464E12	1132.8125	37120.0	0.0	0.0	
-1.0687022900763359	-51.0	0.7786259541984732	70.0	1.083969465648855	-71.0	-0.3373493975903615	1283.0	9.204819277108435	2075.0	0.060240963855421686	2042.0	-0.4118181818181818	453.0	-0.012727272727272728	-14.0	-0.2326530612244898	228.0	1.5228925954534375E12	1.522892595466E12	1136.71875	37248.0	0.0	0.0	
-1.083969465648855	-31.0	0.47328244274809156	71.0	1.099236641221374	-72.0	-0.3855421686746988	1282.0	9.216867469879519	2079.0	0.12048192771084337	2037.0	-0.41	451.0	-0.016363636363636365	-18.0	-0.23673469387755103	232.0	1.5228925954573438E12	1.522892595467E12	1140.625	37376.0	0.0	0.0	
-1.3587786259541985	-24.0	0.366412213740458	89.0	1.083969465648855	-71.0	-0.39759036144578314	1285.0	9.180722891566266	2080.0	0.1566265060240964	2034.0	-0.4081818181818182	449.0	-0.02	-22.0	-0.23367346938775513	229.0	1.52289259546125E12	1.522892595471E12	1144.53125	37504.0	0.0	0.0	
-1.1908396946564885	-21.0	0.32061068702290074	78.0	1.083969465648855	-71.0	-0.4096385542168675	1285.0	9.180722891566266	2081.0	0.20481927710843376	2030.0	-0.4036363636363636	444.0	-0.006363636363636364	-7.0	-0.2285714285714286	224.0	1.5228925954651563E12	1.522892595472E12	1148.4375	37632.0	0.0	0.0	
-1.4351145038167938	-19.0	0.2900763358778626	94.0	1.4351145038167938	-94.0	-0.3734939759036145	1284.0	9.19277108433735	2078.0	0.2530120481927711	2026.0	-0.4090909090909091	450.0	-0.02	-22.0	-0.23877551020408166	234.0	1.5228925954690625E12	1.522892595473E12	1152.34375	37760.0	0.0	0.0	
-1.2366412213740459	-25.0	0.38167938931297707	81.0	1.4809160305343512	-97.0	-0.3493975903614458	1285.0	9.180722891566266	2076.0	0.26506024096385544	2025.0	-0.4118181818181818	453.0	-0.02181818181818182	-24.0	-0.23673469387755103	232.0	1.5228925954729688E12	1.522892595512E12	1156.25	37888.0	0.0	0.0	
-1.1603053435114503	-26.0	0.3969465648854962	76.0	1.5114503816793892	-99.0	-0.3614457831325301	1287.0	9.156626506024097	2077.0	0.27710843373493976	2024.0	-0.4118181818181818	453.0	-0.02181818181818182	-24.0	-0.23673469387755103	232.0	1.522892595476875E12	1.522892595514E12	1160.15625	38016.0	0.0	0.0	
-0.8854961832061068	-7.0	0.10687022900763359	58.0	1.66412213740458	-109.0	-0.27710843373493976	1287.0	9.156626506024097	2070.0	0.27710843373493976	2024.0	-0.40454545454545454	445.0	-0.02181818181818182	-24.0	-0.23367346938775513	229.0	1.5228925954807813E12	1.522892595515E12	1164.0625	38144.0	0.0	0.0	
-1.114503816793893	-3.0	0.04580152671755725	73.0	1.8778625954198473	-123.0	-0.060240963855421686	1287.0	9.156626506024097	2052.0	0.2530120481927711	2026.0	-0.40454545454545454	445.0	-0.01	-11.0	-0.22755102040816327	223.0	1.5228925954846875E12	1.522892595516E12	1167.96875	38272.0	0.0	0.0	
-0.8091603053435115	0.0	0.0	53.0	2.015267175572519	-132.0	0.16867469879518074	1284.0	9.19277108433735	2033.0	0.20481927710843376	2030.0	-0.40454545454545454	445.0	-0.006363636363636364	-7.0	-0.23163265306122452	227.0	1.5228925954885938E12	1.522892595518E12	1171.875	38400.0	0.0	0.0	
-0.8396946564885496	-6.0	0.0916030534351145	55.0	1.816793893129771	-119.0	0.24096385542168675	1283.0	9.204819277108435	2027.0	0.13253012048192772	2036.0	-0.41363636363636364	455.0	-0.012727272727272728	-14.0	-0.23163265306122452	227.0	1.5228925954925E12	1.522892595519E12	1175.78125	38528.0	0.0	0.0	
-0.9618320610687022	-41.0	0.6259541984732824	63.0	1.6030534351145038	-105.0	0.16867469879518074	1281.0	9.228915662650603	2033.0	0.08433734939759037	2040.0	-0.4118181818181818	453.0	-0.02090909090909091	-23.0	-0.23877551020408166	234.0	1.5228925954964063E12	1.522892595521E12	1179.6875	38656.0	0.0	0.0	
-1.0229007633587786	-38.0	0.5801526717557252	67.0	1.4351145038167938	-94.0	0.04819277108433735	1280.0	9.240963855421688	2043.0	0.07228915662650603	2041.0	-0.4072727272727273	448.0	-0.007272727272727273	-8.0	-0.23163265306122452	227.0	1.5228925955003125E12	1.522892595522E12	1183.59375	38784.0	0.0	0.0	
-0.9618320610687022	-63.0	0.9618320610687022	63.0	1.4809160305343512	-97.0	0.0	1281.0	9.228915662650603	2047.0	0.07228915662650603	2041.0	-0.4072727272727273	448.0	-0.007272727272727273	-8.0	-0.23163265306122452	227.0	1.5228925955042188E12	1.522892595523E12	1187.5	38912.0	0.0	0.0	
-0.9465648854961831	-47.0	0.7175572519083969	62.0	1.465648854961832	-96.0	0.0	1280.0	9.240963855421688	2047.0	0.0963855421686747	2039.0	-0.4127272727272727	454.0	-0.012727272727272728	-14.0	-0.2326530612244898	228.0	1.522892595508125E12	1.522892595525E12	1191.40625	39040.0	0.0	0.0	
-1.0534351145038168	-37.0	0.564885496183206	69.0	1.4961832061068703	-98.0	0.03614457831325302	1282.0	9.216867469879519	2044.0	0.10843373493975904	2038.0	-0.41454545454545455	456.0	-0.02090909090909091	-23.0	-0.23877551020408166	234.0	1.5228925955120313E12	1.522892595526E12	1195.3125	39168.0	0.0	0.0	
-1.0381679389312977	-35.0	0.5343511450381679	68.0	1.4809160305343512	-97.0	0.0963855421686747	1284.0	9.19277108433735	2039.0	0.12048192771084337	2037.0	-0.40545454545454546	446.0	-0.005454545454545455	-6.0	-0.23367346938775513	229.0	1.5228925955159375E12	1.522892595527E12	1199.21875	39296.0	0.0	0.0	
-0.8396946564885496	-53.0	0.8091603053435115	55.0	1.1755725190839694	-77.0	0.08433734939759037	1285.0	9.180722891566266	2040.0	0.10843373493975904	2038.0	-0.41363636363636364	455.0	-0.013636363636363636	-15.0	-0.2326530612244898	228.0	1.5228925955198438E12	1.522892595537E12	1203.125	39424.0	0.0	0.0	
-0.5954198473282443	-47.0	0.7175572519083969	39.0	1.1450381679389312	-75.0	0.03614457831325302	1284.0	9.19277108433735	2044.0	0.08433734939759037	2040.0	-0.4109090909090909	452.0	-0.016363636363636365	-18.0	-0.2285714285714286	224.0	1.52289259552375E12	1.522892595538E12	1207.03125	39552.0	0.0	0.0	
-0.8549618320610687	-51.0	0.7786259541984732	56.0	1.1755725190839694	-77.0	-0.060240963855421686	1282.0	9.216867469879519	2052.0	0.03614457831325302	2044.0	-0.4027272727272727	443.0	-0.017272727272727273	-19.0	-0.23367346938775513	229.0	1.5228925955276563E12	1.522892595539E12	1210.9375	39680.0	0.0	0.0	
-1.083969465648855	-57.0	0.8702290076335878	71.0	1.083969465648855	-71.0	-0.13253012048192772	1282.0	9.216867469879519	2058.0	-0.012048192771084338	2048.0	-0.4027272727272727	443.0	-0.017272727272727273	-19.0	-0.23367346938775513	229.0	1.5228925955315625E12	1.522892595546E12	1214.84375	39808.0	0.0	0.0	
-1.083969465648855	-39.0	0.5954198473282443	71.0	1.2366412213740459	-81.0	-0.18072289156626506	1283.0	9.204819277108435	2062.0	-0.012048192771084338	2048.0	-0.39545454545454545	435.0	0.0018181818181818182	2.0	-0.2306122448979592	226.0	1.5228925955354688E12	1.522892595546E12	1218.75	39936.0	0.0	0.0	
-1.2671755725190839	-62.0	0.9465648854961831	83.0	1.2671755725190839	-83.0	-0.1927710843373494	1283.0	9.204819277108435	2063.0	0.0	2047.0	-0.4118181818181818	453.0	-0.02181818181818182	-24.0	-0.23673469387755103	232.0	1.522892595539375E12	1.522892595547E12	1222.65625	40064.0	0.0	0.0	
-1.3129770992366412	-57.0	0.8702290076335878	86.0	1.3893129770992365	-91.0	-0.18072289156626506	1283.0	9.204819277108435	2062.0	0.03614457831325302	2044.0	-0.4081818181818182	449.0	-0.004545454545454545	-5.0	-0.23163265306122452	227.0	1.5228925955432813E12	1.522892595553E12	1226.5625	40192.0	0.0	0.0	
-1.2519083969465647	-67.0	1.0229007633587786	82.0	1.3893129770992365	-91.0	-0.20481927710843376	1285.0	9.180722891566266	2064.0	0.08433734939759037	2040.0	-0.40545454545454546	446.0	-0.013636363636363636	-15.0	-0.2306122448979592	226.0	1.5228925955471875E12	1.522892595554E12	1230.46875	40320.0	0.0	0.0	
-1.2061068702290076	-51.0	0.7786259541984732	79.0	1.3740458015267174	-90.0	-0.22891566265060243	1285.0	9.180722891566266	2066.0	0.08433734939759037	2040.0	-0.4118181818181818	453.0	-0.02181818181818182	-24.0	-0.23367346938775513	229.0	1.5228925955510938E12	1.522892595555E12	1234.375	40448.0	0.0	0.0	
-1.297709923664122	-49.0	0.7480916030534351	85.0	1.465648854961832	-96.0	-0.22891566265060243	1284.0	9.19277108433735	2066.0	0.08433734939759037	2040.0	-0.4072727272727273	448.0	-0.005454545454545455	-6.0	-0.23571428571428574	231.0	1.522892595555E12	1.522892595567E12	1238.28125	40576.0	0.0	0.0	
-1.5114503816793892	-61.0	0.9312977099236641	99.0	1.648854961832061	-108.0	-0.27710843373493976	1284.0	9.19277108433735	2070.0	0.12048192771084337	2037.0	-0.4072727272727273	448.0	-0.005454545454545455	-6.0	-0.23571428571428574	231.0	1.5228925955589063E12	1.522892595571E12	1242.1875	40704.0	0.0	0.0	
-1.450381679389313	-52.0	0.7938931297709924	95.0	1.6335877862595418	-107.0	-0.3132530120481928	1286.0	9.168674698795181	2073.0	0.13253012048192772	2036.0	-0.4109090909090909	452.0	-0.016363636363636365	-18.0	-0.2306122448979592	226.0	1.5228925955628125E12	1.522892595572E12	1246.09375	40832.0	0.0	0.0	
-1.5267175572519083	-29.0	0.4427480916030534	100.0	1.8778625954198473	-123.0	-0.21686746987951808	1286.0	9.168674698795181	2065.0	0.18072289156626506	2032.0	-0.4118181818181818	453.0	-0.014545454545454545	-16.0	-0.2306122448979592	226.0	1.5228925955667188E12	1.522892595573E12	1250.0	40960.0	0.0	0.0	
-1.4809160305343512	-26.0	0.3969465648854962	97.0	1.9236641221374045	-126.0	-0.08433734939759037	1287.0	9.156626506024097	2054.0	0.1927710843373494	2031.0	-0.4090909090909091	450.0	-0.007272727272727273	-8.0	-0.23571428571428574	231.0	1.522892595570625E12	1.522892595583E12	1253.90625	41088.0	0.0	0.0	
-1.114503816793893	-40.0	0.6106870229007634	73.0	1.8625954198473282	-122.0	0.03614457831325302	1285.0	9.180722891566266	2044.0	0.20481927710843376	2030.0	-0.41363636363636364	455.0	-0.02	-22.0	-0.2326530612244898	228.0	1.5228925955745313E12	1.522892595584E12	1257.8125	41216.0	0.0	0.0	
-1.4045801526717556	-55.0	0.8396946564885496	92.0	1.7099236641221374	-112.0	0.024096385542168676	1284.0	9.19277108433735	2045.0	0.1927710843373494	2031.0	-0.4127272727272727	454.0	-0.02	-22.0	-0.23877551020408166	234.0	1.5228925955784375E12	1.522892595585E12	1261.71875	41344.0	0.0	0.0	
-1.0076335877862594	-64.0	0.9770992366412213	66.0	1.648854961832061	-108.0	-0.07228915662650603	1283.0	9.204819277108435	2053.0	0.13253012048192772	2036.0	-0.4009090909090909	441.0	-0.017272727272727273	-19.0	-0.23469387755102042	230.0	1.5228925955823438E12	1.522892595599E12	1265.625	41472.0	0.0	0.0	
-0.9770992366412213	-69.0	1.0534351145038168	64.0	1.5725190839694656	-103.0	-0.16867469879518074	1281.0	9.228915662650603	2061.0	0.0963855421686747	2039.0	-0.4009090909090909	441.0	-0.017272727272727273	-19.0	-0.23469387755102042	230.0	1.52289259558625E12	1.5228925956E12	1269.53125	41600.0	0.0	0.0	
-1.2519083969465647	-52.0	0.7938931297709924	82.0	1.7404580152671756	-114.0	-0.21686746987951808	1281.0	9.228915662650603	2065.0	0.0963855421686747	2039.0	-0.4081818181818182	449.0	-0.02090909090909091	-23.0	-0.23367346938775513	229.0	1.5228925955901563E12	1.522892595601E12	1273.4375	41728.0	0.0	0.0	
-1.3587786259541985	-51.0	0.7786259541984732	89.0	1.618320610687023	-106.0	-0.18072289156626506	1282.0	9.216867469879519	2062.0	0.12048192771084337	2037.0	-0.4090909090909091	450.0	-0.01818181818181818	-20.0	-0.23163265306122452	227.0	1.5228925955940625E12	1.522892595609E12	1277.34375	41856.0	0.0	0.0	
-1.7251908396946565	-37.0	0.564885496183206	113.0	2.015267175572519	-132.0	-0.08433734939759037	1284.0	9.19277108433735	2054.0	0.14457831325301207	2035.0	-0.4090909090909091	450.0	-0.0018181818181818182	-2.0	-0.2326530612244898	228.0	1.5228925955979688E12	1.52289259561E12	1281.25	41984.0	0.0	0.0	
-1.3435114503816794	-43.0	0.6564885496183206	88.0	1.8625954198473282	-122.0	0.0	1285.0	9.180722891566266	2047.0	0.18072289156626506	2032.0	-0.4109090909090909	452.0	-0.02181818181818182	-24.0	-0.2326530612244898	228.0	1.522892595601875E12	1.522892595611E12	1285.15625	42112.0	0.0	0.0	
-1.2671755725190839	-49.0	0.7480916030534351	83.0	1.8778625954198473	-123.0	0.0	1284.0	9.19277108433735	2047.0	0.1566265060240964	2034.0	-0.41363636363636364	455.0	-0.01818181818181818	-20.0	-0.23571428571428574	231.0	1.5228925956057813E12	1.522892595615E12	1289.0625	42240.0	0.0	0.0	
-1.1450381679389312	-56.0	0.8549618320610687	75.0	1.648854961832061	-108.0	-0.07228915662650603	1285.0	9.180722891566266	2053.0	0.13253012048192772	2036.0	-0.3981818181818182	438.0	-0.015454545454545455	-17.0	-0.23469387755102042	230.0	1.5228925956096875E12	1.522892595616E12	1292.96875	42368.0	0.0	0.0	
-1.2213740458015268	-49.0	0.7480916030534351	80.0	1.8625954198473282	-122.0	-0.1566265060240964	1284.0	9.19277108433735	2060.0	0.07228915662650603	2041.0	-0.3981818181818182	438.0	-0.015454545454545455	-17.0	-0.23469387755102042	230.0	1.5228925956135938E12	1.522892595617E12	1296.875	42496.0	0.0	0.0	
-1.297709923664122	-51.0	0.7786259541984732	85.0	1.7862595419847327	-117.0	-0.22891566265060243	1284.0	9.19277108433735	2066.0	0.060240963855421686	2042.0	-0.4036363636363636	444.0	-0.017272727272727273	-19.0	-0.2326530612244898	228.0	1.5228925956175E12	1.52289259563E12	1300.78125	42624.0	0.0	0.0	
-1.5572519083969465	-44.0	0.6717557251908397	102.0	1.8778625954198473	-123.0	-0.2530120481927711	1281.0	9.228915662650603	2068.0	0.04819277108433735	2043.0	-0.41	451.0	-0.013636363636363636	-15.0	-0.2326530612244898	228.0	1.5228925956214063E12	1.522892595631E12	1304.6875	42752.0	0.0	0.0	
-1.83206106870229	-27.0	0.41221374045801523	120.0	1.8625954198473282	-122.0	-0.24096385542168675	1282.0	9.216867469879519	2067.0	0.1566265060240964	2034.0	-0.41	451.0	-0.011818181818181818	-13.0	-0.23673469387755103	232.0	1.5228925956253125E12	1.522892595663E12	1308.59375	42880.0	0.0	0.0	
-1.83206106870229	-25.0	0.38167938931297707	120.0	2.0	-131.0	-0.21686746987951808	1284.0	9.19277108433735	2065.0	0.2530120481927711	2026.0	-0.4118181818181818	453.0	-0.019090909090909092	-21.0	-0.2326530612244898	228.0	1.5228925956292188E12	1.522892595666E12	1312.5	43008.0	0.0	0.0	
-1.7709923664122136	-21.0	0.32061068702290074	116.0	1.984732824427481	-130.0	-0.16867469879518074	1285.0	9.180722891566266	2061.0	0.3373493975903615	2019.0	-0.4081818181818182	449.0	-0.02	-22.0	-0.23367346938775513	229.0	1.522892595633125E12	1.522892595668E12	1316.40625	43136.0	0.0	0.0	
-1.465648854961832	-30.0	0.4580152671755725	96.0	2.045801526717557	-134.0	-0.12048192771084337	1284.0	9.19277108433735	2057.0	0.3493975903614458	2018.0	-0.4081818181818182	449.0	-0.02	-22.0	-0.23367346938775513	229.0	1.5228925956370313E12	1.52289259567E12	1320.3125	43264.0	0.0	0.0	
-1.4045801526717556	-10.0	0.15267175572519084	92.0	2.259541984732824	-148.0	-0.03614457831325302	1284.0	9.19277108433735	2050.0	0.3855421686746988	2015.0	-0.4109090909090909	452.0	-0.013636363636363636	-15.0	-0.23367346938775513	229.0	1.5228925956409375E12	1.522892595671E12	1324.21875	43392.0	0.0	0.0	
-1.2061068702290076	-25.0	0.38167938931297707	79.0	2.045801526717557	-134.0	-0.04819277108433735	1285.0	9.180722891566266	2051.0	0.3734939759036145	2016.0	-0.40636363636363637	447.0	-0.0018181818181818182	-2.0	-0.23571428571428574	231.0	1.5228925956448438E12	1.522892595673E12	1328.125	43520.0	0.0	0.0	
-1.1603053435114503	-16.0	0.24427480916030533	76.0	2.1526717557251906	-141.0	-0.03614457831325302	1284.0	9.19277108433735	2050.0	0.3734939759036145	2016.0	-0.40545454545454546	446.0	-0.013636363636363636	-15.0	-0.23673469387755103	232.0	1.52289259564875E12	1.522892595674E12	1332.03125	43648.0	0.0	0.0	
-1.3129770992366412	-12.0	0.183206106870229	86.0	2.2442748091603053	-147.0	-0.024096385542168676	1285.0	9.180722891566266	2049.0	0.3734939759036145	2016.0	-0.41	451.0	-0.015454545454545455	-17.0	-0.23469387755102042	230.0	1.5228925956526563E12	1.522892595675E12	1335.9375	43776.0	0.0	0.0	
-1.2213740458015268	-6.0	0.0916030534351145	80.0	2.351145038167939	-154.0	0.0	1285.0	9.180722891566266	2047.0	0.39759036144578314	2014.0	-0.4127272727272727	454.0	-0.022727272727272728	-25.0	-0.23163265306122452	227.0	1.5228925956565625E12	1.522892595676E12	1339.84375	43904.0	0.0	0.0	
-1.1755725190839694	5.0	-0.07633587786259542	77.0	2.2442748091603053	-147.0	0.07228915662650603	1286.0	9.168674698795181	2041.0	0.43373493975903615	2011.0	-0.40545454545454546	446.0	-0.016363636363636365	-18.0	-0.23571428571428574	231.0	1.5228925956604688E12	1.522892595677E12	1343.75	44032.0	0.0	0.0	
-1.0229007633587786	-5.0	0.07633587786259542	67.0	2.351145038167939	-154.0	0.1566265060240964	1288.0	9.144578313253012	2034.0	0.43373493975903615	2011.0	-0.40545454545454546	446.0	-0.016363636363636365	-18.0	-0.23571428571428574	231.0	1.522892595664375E12	1.522892595678E12	1347.65625	44160.0	0.0	0.0	
-0.9465648854961831	-11.0	0.16793893129770993	62.0	2.183206106870229	-143.0	0.1927710843373494	1286.0	9.168674698795181	2031.0	0.3734939759036145	2016.0	-0.41	451.0	-0.012727272727272728	-14.0	-0.23469387755102042	230.0	1.5228925956682813E12	1.522892595679E12	1351.5625	44288.0	0.0	0.0	
-0.6564885496183206	-10.0	0.15267175572519084	43.0	2.045801526717557	-134.0	0.21686746987951808	1286.0	9.168674698795181	2029.0	0.27710843373493976	2024.0	-0.4109090909090909	452.0	-0.02090909090909091	-23.0	-0.23163265306122452	227.0	1.5228925956721875E12	1.522892595681E12	1355.46875	44416.0	0.0	0.0	
-0.8549618320610687	-7.0	0.10687022900763359	56.0	2.1068702290076335	-138.0	0.3132530120481928	1284.0	9.19277108433735	2021.0	0.14457831325301207	2035.0	-0.4072727272727273	448.0	-0.02	-22.0	-0.23877551020408166	234.0	1.5228925956760938E12	1.522892595689E12	1359.375	44544.0	0.0	0.0	
-0.8396946564885496	-18.0	0.2748091603053435	55.0	2.0	-131.0	0.3253012048192771	1282.0	9.216867469879519	2020.0	0.04819277108433735	2043.0	-0.4081818181818182	449.0	-0.016363636363636365	-18.0	-0.23367346938775513	229.0	1.52289259568E12	1.522892595692E12	1363.28125	44672.0	0.0	0.0	
-1.1603053435114503	-34.0	0.5190839694656488	76.0	1.9389312977099236	-127.0	0.27710843373493976	1281.0	9.228915662650603	2024.0	0.012048192771084338	2046.0	-0.4109090909090909	452.0	-0.0027272727272727275	-3.0	-0.22551020408163266	221.0	1.5228925956839063E12	1.522892595693E12	1367.1875	44800.0	0.0	0.0	
-1.282442748091603	-60.0	0.916030534351145	84.0	1.8931297709923662	-124.0	0.20481927710843376	1283.0	9.204819277108435	2030.0	0.012048192771084338	2046.0	-0.41	451.0	-0.011818181818181818	-13.0	-0.2285714285714286	224.0	1.5228925956878125E12	1.522892595706E12	1371.09375	44928.0	0.0	0.0	
-1.3282442748091603	-51.0	0.7786259541984732	87.0	1.7099236641221374	-112.0	0.1566265060240964	1284.0	9.19277108433735	2034.0	0.03614457831325302	2044.0	-0.41	451.0	-0.011818181818181818	-13.0	-0.2285714285714286	224.0	1.5228925956917188E12	1.522892595707E12	1375.0	45056.0	0.0	0.0	
-1.3129770992366412	-56.0	0.8549618320610687	86.0	1.984732824427481	-130.0	0.10843373493975904	1283.0	9.204819277108435	2038.0	0.07228915662650603	2041.0	-0.41	451.0	-0.005454545454545455	-6.0	-0.23367346938775513	229.0	1.522892595695625E12	1.522892595708E12	1378.90625	45184.0	0.0	0.0	
-1.114503816793893	-58.0	0.8854961832061068	73.0	1.7404580152671756	-114.0	0.08433734939759037	1283.0	9.204819277108435	2040.0	0.08433734939759037	2040.0	-0.41545454545454547	457.0	-0.02090909090909091	-23.0	-0.23469387755102042	230.0	1.5228925956995313E12	1.52289259571E12	1382.8125	45312.0	0.0	0.0	
-1.2519083969465647	-47.0	0.7175572519083969	82.0	1.7099236641221374	-112.0	0.07228915662650603	1283.0	9.204819277108435	2041.0	0.13253012048192772	2036.0	-0.41	451.0	-0.017272727272727273	-19.0	-0.23979591836734696	235.0	1.5228925957034375E12	1.522892595711E12	1386.71875	45440.0	0.0	0.0	
-1.0687022900763359	-54.0	0.8244274809160305	70.0	1.6030534351145038	-105.0	0.07228915662650603	1283.0	9.204819277108435	2041.0	0.13253012048192772	2036.0	-0.41363636363636364	455.0	-0.006363636363636364	-7.0	-0.2326530612244898	228.0	1.5228925957073438E12	1.522892595712E12	1390.625	45568.0	0.0	0.0	
-1.2061068702290076	-63.0	0.9618320610687022	79.0	1.6335877862595418	-107.0	0.024096385542168676	1285.0	9.180722891566266	2045.0	0.14457831325301207	2035.0	-0.4127272727272727	454.0	-0.02181818181818182	-24.0	-0.23163265306122452	227.0	1.52289259571125E12	1.522892595724E12	1394.53125	45696.0	0.0	0.0	
-1.3740458015267174	-50.0	0.7633587786259541	90.0	1.465648854961832	-96.0	-0.024096385542168676	1284.0	9.19277108433735	2049.0	0.18072289156626506	2032.0	-0.40636363636363637	447.0	-0.022727272727272728	-25.0	-0.23673469387755103	232.0	1.5228925957151563E12	1.522892595726E12	1398.4375	45824.0	0.0	0.0	
-1.6793893129770991	-58.0	0.8854961832061068	110.0	1.4961832061068703	-98.0	-0.060240963855421686	1284.0	9.19277108433735	2052.0	0.26506024096385544	2025.0	-0.40636363636363637	447.0	-0.022727272727272728	-25.0	-0.23673469387755103	232.0	1.5228925957190625E12	1.522892595727E12	1402.34375	45952.0	0.0	0.0	
-1.618320610687023	-48.0	0.732824427480916	106.0	1.618320610687023	-106.0	-0.08433734939759037	1284.0	9.19277108433735	2054.0	0.3373493975903615	2019.0	-0.4127272727272727	454.0	-0.012727272727272728	-14.0	-0.23163265306122452	227.0	1.5228925957229688E12	1.522892595741E12	1406.25	46080.0	0.0	0.0	
-1.4809160305343512	-48.0	0.732824427480916	97.0	1.83206106870229	-120.0	-0.08433734939759037	1284.0	9.19277108433735	2054.0	0.42168674698795183	2012.0	-0.41363636363636364	455.0	-0.02181818181818182	-24.0	-0.23673469387755103	232.0	1.522892595726875E12	1.522892595742E12	1410.15625	46208.0	0.0	0.0	
-1.2519083969465647	-54.0	0.8244274809160305	82.0	1.6335877862595418	-107.0	-0.07228915662650603	1283.0	9.204819277108435	2053.0	0.4819277108433735	2007.0	-0.4072727272727273	448.0	-0.017272727272727273	-19.0	-0.23673469387755103	232.0	1.5228925957307813E12	1.522892595743E12	1414.0625	46336.0	0.0	0.0	
-1.3893129770992365	-53.0	0.8091603053435115	91.0	1.7404580152671756	-114.0	-0.12048192771084337	1286.0	9.168674698795181	2057.0	0.5301204819277109	2003.0	-0.4127272727272727	454.0	-0.011818181818181818	-13.0	-0.2285714285714286	224.0	1.5228925957346875E12	1.522892595745E12	1417.96875	46464.0	0.0	0.0	
-1.099236641221374	-44.0	0.6717557251908397	72.0	1.9083969465648853	-125.0	-0.13253012048192772	1283.0	9.204819277108435	2058.0	0.5301204819277109	2003.0	-0.4081818181818182	449.0	-0.0036363636363636364	-4.0	-0.22653061224489798	222.0	1.5228925957385938E12	1.522892595746E12	1421.875	46592.0	0.0	0.0	
-1.1908396946564885	-27.0	0.41221374045801523	78.0	1.7709923664122136	-116.0	-0.0963855421686747	1283.0	9.204819277108435	2055.0	0.5421686746987953	2002.0	-0.40636363636363637	447.0	-0.02	-22.0	-0.23673469387755103	232.0	1.5228925957425E12	1.522892595747E12	1425.78125	46720.0	0.0	0.0	
-1.099236641221374	-19.0	0.2900763358778626	72.0	1.8015267175572518	-118.0	-0.060240963855421686	1284.0	9.19277108433735	2052.0	0.5421686746987953	2002.0	-0.40636363636363637	447.0	-0.02	-22.0	-0.23673469387755103	232.0	1.5228925957464063E12	1.522892595762E12	1429.6875	46848.0	0.0	0.0	
-0.6564885496183206	-13.0	0.1984732824427481	43.0	1.7862595419847327	-117.0	0.012048192771084338	1283.0	9.204819277108435	2046.0	0.5662650602409639	2000.0	-0.4109090909090909	452.0	-0.012727272727272728	-14.0	-0.2326530612244898	228.0	1.5228925957503125E12	1.522892595763E12	1433.59375	46976.0	0.0	0.0	
-0.7786259541984732	-3.0	0.04580152671755725	51.0	1.8015267175572518	-118.0	0.04819277108433735	1285.0	9.180722891566266	2043.0	0.5903614457831325	1998.0	-0.4090909090909091	450.0	-0.01	-11.0	-0.2295918367346939	225.0	1.5228925957542188E12	1.522892595764E12	1437.5	47104.0	0.0	0.0	
-0.7480916030534351	-6.0	0.0916030534351145	49.0	1.8473282442748091	-121.0	0.10843373493975904	1287.0	9.156626506024097	2038.0	0.5662650602409639	2000.0	-0.41	451.0	-0.013636363636363636	-15.0	-0.23163265306122452	227.0	1.522892595758125E12	1.522892595766E12	1441.40625	47232.0	0.0	0.0	
-0.549618320610687	-9.0	0.13740458015267176	36.0	1.8015267175572518	-118.0	0.24096385542168675	1287.0	9.156626506024097	2027.0	0.5421686746987953	2002.0	-0.41363636363636364	455.0	-0.011818181818181818	-13.0	-0.23163265306122452	227.0	1.5228925957620313E12	1.522892595767E12	1445.3125	47360.0	0.0	0.0	
-0.549618320610687	2.0	-0.030534351145038167	36.0	2.045801526717557	-134.0	0.3253012048192771	1284.0	9.19277108433735	2020.0	0.44578313253012053	2010.0	-0.4118181818181818	453.0	-0.015454545454545455	-17.0	-0.23571428571428574	231.0	1.5228925957659375E12	1.522892595768E12	1449.21875	47488.0	0.0	0.0	
-0.21374045801526717	-18.0	0.2748091603053435	14.0	1.7557251908396947	-115.0	0.3132530120481928	1283.0	9.204819277108435	2021.0	0.3493975903614458	2018.0	-0.4118181818181818	453.0	-0.013636363636363636	-15.0	-0.23571428571428574	231.0	1.5228925957698438E12	1.522892595779E12	1453.125	47616.0	0.0	0.0	
-0.21374045801526717	-30.0	0.4580152671755725	14.0	1.7862595419847327	-117.0	0.3373493975903615	1282.0	9.216867469879519	2019.0	0.26506024096385544	2025.0	-0.41	451.0	-0.013636363636363636	-15.0	-0.23571428571428574	231.0	1.52289259577375E12	1.522892595781E12	1457.03125	47744.0	0.0	0.0	
-0.1984732824427481	-28.0	0.42748091603053434	13.0	1.450381679389313	-95.0	0.3373493975903615	1281.0	9.228915662650603	2019.0	0.18072289156626506	2032.0	-0.40545454545454546	446.0	-0.013636363636363636	-15.0	-0.23571428571428574	231.0	1.5228925957776563E12	1.522892595782E12	1460.9375	47872.0	0.0	0.0	
-0.07633587786259542	-33.0	0.5038167938931297	5.0	1.5725190839694656	-103.0	0.3253012048192771	1282.0	9.216867469879519	2020.0	0.13253012048192772	2036.0	-0.41363636363636364	455.0	-0.02090909090909091	-23.0	-0.23979591836734696	235.0	1.5228925957815625E12	1.522892595818E12	1464.84375	48000.0	0.0	0.0	
-0.0916030534351145	-38.0	0.5801526717557252	6.0	1.297709923664122	-85.0	0.28915662650602414	1283.0	9.204819277108435	2023.0	0.13253012048192772	2036.0	-0.4072727272727273	448.0	-0.016363636363636365	-18.0	-0.23673469387755103	232.0	1.5228925957854688E12	1.522892595819E12	1468.75	48128.0	0.0	0.0	
-0.2595419847328244	-38.0	0.5801526717557252	17.0	1.3282442748091603	-87.0	0.24096385542168675	1284.0	9.19277108433735	2027.0	0.10843373493975904	2038.0	-0.41363636363636364	455.0	-0.011818181818181818	-13.0	-0.2306122448979592	226.0	1.522892595789375E12	1.522892595819E12	1472.65625	48256.0	0.0	0.0	
-0.2748091603053435	-41.0	0.6259541984732824	18.0	1.450381679389313	-95.0	0.24096385542168675	1283.0	9.204819277108435	2027.0	0.10843373493975904	2038.0	-0.40636363636363637	447.0	0.0018181818181818182	2.0	-0.23163265306122452	227.0	1.5228925957932813E12	1.522892595819E12	1476.5625	48384.0	0.0	0.0	
-0.32061068702290074	-51.0	0.7786259541984732	21.0	1.129770992366412	-74.0	0.16867469879518074	1283.0	9.204819277108435	2033.0	0.07228915662650603	2041.0	-0.40636363636363637	447.0	0.0018181818181818182	2.0	-0.23163265306122452	227.0	1.5228925957971875E12	1.52289259582E12	1480.46875	48512.0	0.0	0.0	
-0.22900763358778625	-56.0	0.8549618320610687	15.0	1.2671755725190839	-83.0	0.13253012048192772	1285.0	9.180722891566266	2036.0	0.04819277108433735	2043.0	-0.4109090909090909	452.0	-0.012727272727272728	-14.0	-0.23163265306122452	227.0	1.5228925958010938E12	1.522892595826E12	1484.375	48640.0	0.0	0.0	
-0.22900763358778625	-48.0	0.732824427480916	15.0	1.2213740458015268	-80.0	0.0963855421686747	1283.0	9.204819277108435	2039.0	-0.024096385542168676	2049.0	-0.4127272727272727	454.0	-0.013636363636363636	-15.0	-0.23367346938775513	229.0	1.522892595805E12	1.522892595826E12	1488.28125	48768.0	0.0	0.0	
-0.48854961832061067	-57.0	0.8702290076335878	32.0	1.099236641221374	-72.0	0.024096385542168676	1282.0	9.216867469879519	2045.0	-0.07228915662650603	2053.0	-0.4109090909090909	452.0	-0.02181818181818182	-24.0	-0.23673469387755103	232.0	1.5228925958089063E12	1.522892595827E12	1492.1875	48896.0	0.0	0.0	
-0.5801526717557252	-54.0	0.8244274809160305	38.0	1.1603053435114503	-76.0	-0.024096385542168676	1283.0	9.204819277108435	2049.0	-0.04819277108433735	2051.0	-0.41	451.0	-0.007272727272727273	-8.0	-0.2326530612244898	228.0	1.5228925958128125E12	1.522892595835E12	1496.09375	49024.0	0.0	0.0	
-0.8549618320610687	-64.0	0.9770992366412213	56.0	1.1603053435114503	-76.0	-0.08433734939759037	1284.0	9.19277108433735	2054.0	-0.03614457831325302	2050.0	-0.4163636363636364	458.0	-0.016363636363636365	-18.0	-0.23163265306122452	227.0	1.5228925958167188E12	1.522892595835E12	1500.0	49152.0	0.0	0.0	
-0.7022900763358778	-44.0	0.6717557251908397	46.0	1.0534351145038168	-69.0	-0.10843373493975904	1283.0	9.204819277108435	2056.0	0.024096385542168676	2045.0	-0.4118181818181818	453.0	-0.02181818181818182	-24.0	-0.23979591836734696	235.0	1.522892595820625E12	1.522892595837E12	1503.90625	49280.0	0.0	0.0	
-0.916030534351145	-57.0	0.8702290076335878	60.0	1.282442748091603	-84.0	-0.12048192771084337	1285.0	9.180722891566266	2057.0	0.08433734939759037	2040.0	-0.4118181818181818	453.0	-0.02181818181818182	-24.0	-0.23979591836734696	235.0	1.5228925958245313E12	1.522892595844E12	1507.8125	49408.0	0.0	0.0	
-0.7938931297709924	-52.0	0.7938931297709924	52.0	1.297709923664122	-85.0	-0.0963855421686747	1284.0	9.19277108433735	2055.0	0.14457831325301207	2035.0	-0.40636363636363637	447.0	-0.008181818181818182	-9.0	-0.23673469387755103	232.0	1.5228925958284375E12	1.522892595845E12	1511.71875	49536.0	0.0	0.0	
-0.9312977099236641	-54.0	0.8244274809160305	61.0	1.3587786259541985	-89.0	-0.04819277108433735	1286.0	9.168674698795181	2051.0	0.16867469879518074	2033.0	-0.40454545454545454	445.0	9.090909090909091E-4	1.0	-0.23163265306122452	227.0	1.5228925958323438E12	1.522892595847E12	1515.625	49664.0	0.0	0.0	
-0.8854961832061068	-57.0	0.8702290076335878	58.0	1.1755725190839694	-77.0	-0.07228915662650603	1285.0	9.180722891566266	2053.0	0.1927710843373494	2031.0	-0.4118181818181818	453.0	-9.090909090909091E-4	-1.0	-0.2285714285714286	224.0	1.52289259583625E12	1.522892595848E12	1519.53125	49792.0	0.0	0.0	
-0.9312977099236641	-53.0	0.8091603053435115	61.0	1.282442748091603	-84.0	-0.10843373493975904	1286.0	9.168674698795181	2056.0	0.22891566265060243	2028.0	-0.4072727272727273	448.0	-0.01	-11.0	-0.2326530612244898	228.0	1.5228925958401563E12	1.522892595848E12	1523.4375	49920.0	0.0	0.0	
-0.9465648854961831	-54.0	0.8244274809160305	62.0	1.2519083969465647	-82.0	-0.13253012048192772	1284.0	9.19277108433735	2058.0	0.24096385542168675	2027.0	-0.41363636363636364	455.0	-0.015454545454545455	-17.0	-0.23163265306122452	227.0	1.5228925958440625E12	1.522892595859E12	1527.34375	50048.0	0.0	0.0	
-0.9312977099236641	-46.0	0.7022900763358778	61.0	1.4809160305343512	-97.0	-0.12048192771084337	1283.0	9.204819277108435	2057.0	0.2530120481927711	2026.0	-0.4109090909090909	452.0	-0.0018181818181818182	-2.0	-0.2306122448979592	226.0	1.5228925958479688E12	1.522892595859E12	1531.25	50176.0	0.0	0.0	
-0.7938931297709924	-33.0	0.5038167938931297	52.0	1.3435114503816794	-88.0	-0.13253012048192772	1285.0	9.180722891566266	2058.0	0.26506024096385544	2025.0	-0.4109090909090909	452.0	-0.0018181818181818182	-2.0	-0.2306122448979592	226.0	1.522892595851875E12	1.522892595868E12	1535.15625	50304.0	0.0	0.0	
-0.8702290076335878	-31.0	0.47328244274809156	57.0	1.618320610687023	-106.0	-0.08433734939759037	1285.0	9.180722891566266	2054.0	0.27710843373493976	2024.0	-0.41545454545454547	457.0	-0.01	-11.0	-0.23469387755102042	230.0	1.5228925958557813E12	1.522892595874E12	1539.0625	50432.0	0.0	0.0	
-0.6259541984732824	-31.0	0.47328244274809156	41.0	1.5114503816793892	-99.0	-0.03614457831325302	1284.0	9.19277108433735	2050.0	0.30120481927710846	2022.0	-0.40636363636363637	447.0	0.0036363636363636364	4.0	-0.23163265306122452	227.0	1.5228925958596875E12	1.522892595874E12	1542.96875	50560.0	0.0	0.0	
-0.4580152671755725	-21.0	0.32061068702290074	30.0	1.4809160305343512	-97.0	0.0	1283.0	9.204819277108435	2047.0	0.28915662650602414	2023.0	-0.41454545454545455	456.0	-0.02090909090909091	-23.0	-0.23775510204081635	233.0	1.5228925958635938E12	1.522892595874E12	1546.875	50688.0	0.0	0.0	
-0.7938931297709924	-33.0	0.5038167938931297	52.0	1.5267175572519083	-100.0	0.024096385542168676	1283.0	9.204819277108435	2045.0	0.28915662650602414	2023.0	-0.4072727272727273	448.0	-0.006363636363636364	-7.0	-0.23775510204081635	233.0	1.5228925958675E12	1.522892595886E12	1550.78125	50816.0	0.0	0.0	
-0.6106870229007634	-30.0	0.4580152671755725	40.0	1.465648854961832	-96.0	0.04819277108433735	1284.0	9.19277108433735	2043.0	0.26506024096385544	2025.0	-0.4109090909090909	452.0	-0.01818181818181818	-20.0	-0.2285714285714286	224.0	1.5228925958714063E12	1.522892595887E12	1554.6875	50944.0	0.0	0.0	
-0.7938931297709924	-34.0	0.5190839694656488	52.0	1.6335877862595418	-107.0	0.08433734939759037	1282.0	9.216867469879519	2040.0	0.26506024096385544	2025.0	-0.41454545454545455	456.0	-0.02090909090909091	-23.0	-0.23979591836734696	235.0	1.5228925958753125E12	1.522892595887E12	1558.59375	51072.0	0.0	0.0	
-0.7175572519083969	-15.0	0.22900763358778625	47.0	1.450381679389313	-95.0	0.14457831325301207	1282.0	9.216867469879519	2035.0	0.27710843373493976	2024.0	-0.41454545454545455	456.0	-0.02090909090909091	-23.0	-0.23979591836734696	235.0	1.5228925958792188E12	1.522892595896E12	1562.5	51200.0	0.0	0.0	
-0.6564885496183206	-19.0	0.2900763358778626	43.0	1.4351145038167938	-94.0	0.14457831325301207	1283.0	9.204819277108435	2035.0	0.27710843373493976	2024.0	-0.4090909090909091	450.0	-0.01090909090909091	-12.0	-0.23469387755102042	230.0	1.522892595883125E12	1.522892595896E12	1566.40625	51328.0	0.0	0.0	
-0.564885496183206	-21.0	0.32061068702290074	37.0	1.450381679389313	-95.0	0.14457831325301207	1286.0	9.168674698795181	2035.0	0.26506024096385544	2025.0	-0.4072727272727273	448.0	-0.0027272727272727275	-3.0	-0.24081632653061227	236.0	1.5228925958870313E12	1.522892595896E12	1570.3125	51456.0	0.0	0.0	
-0.4427480916030534	-26.0	0.3969465648854962	29.0	1.3435114503816794	-88.0	0.12048192771084337	1285.0	9.180722891566266	2037.0	0.22891566265060243	2028.0	-0.4127272727272727	454.0	-0.015454545454545455	-17.0	-0.2295918367346939	225.0	1.5228925958909375E12	1.522892595904E12	1574.21875	51584.0	0.0	0.0	
-0.3969465648854962	-14.0	0.21374045801526717	26.0	1.4045801526717556	-92.0	0.03614457831325302	1286.0	9.168674698795181	2044.0	0.14457831325301207	2035.0	-0.4072727272727273	448.0	-0.01	-11.0	-0.23367346938775513	229.0	1.5228925958948438E12	1.522892595904E12	1578.125	51712.0	0.0	0.0	
-0.5038167938931297	-25.0	0.38167938931297707	33.0	1.2061068702290076	-79.0	-0.04819277108433735	1284.0	9.19277108433735	2051.0	0.12048192771084337	2037.0	-0.4109090909090909	452.0	-0.02090909090909091	-23.0	-0.2326530612244898	228.0	1.52289259589875E12	1.522892595905E12	1582.03125	51840.0	0.0	0.0	
-0.2748091603053435	-21.0	0.32061068702290074	18.0	1.450381679389313	-95.0	-0.16867469879518074	1286.0	9.168674698795181	2061.0	0.0963855421686747	2039.0	-0.4118181818181818	453.0	-0.004545454545454545	-5.0	-0.23163265306122452	227.0	1.5228925959026563E12	1.522892595917E12	1585.9375	51968.0	0.0	0.0	
-0.7175572519083969	-41.0	0.6259541984732824	47.0	1.2519083969465647	-82.0	-0.26506024096385544	1284.0	9.19277108433735	2069.0	0.08433734939759037	2040.0	-0.4118181818181818	453.0	-0.004545454545454545	-5.0	-0.23163265306122452	227.0	1.5228925959065625E12	1.522892595918E12	1589.84375	52096.0	0.0	0.0	
-0.7938931297709924	-23.0	0.3511450381679389	52.0	1.3282442748091603	-87.0	-0.3253012048192771	1284.0	9.19277108433735	2074.0	0.08433734939759037	2040.0	-0.4081818181818182	449.0	-0.013636363636363636	-15.0	-0.23469387755102042	230.0	1.5228925959104688E12	1.522892595918E12	1593.75	52224.0	0.0	0.0	
-0.6564885496183206	-36.0	0.549618320610687	43.0	1.5877862595419847	-104.0	-0.3373493975903615	1286.0	9.168674698795181	2075.0	0.12048192771084337	2037.0	-0.4090909090909091	450.0	-0.019090909090909092	-21.0	-0.2326530612244898	228.0	1.522892595914375E12	1.522892595926E12	1597.65625	52352.0	0.0	0.0	
-0.7175572519083969	-23.0	0.3511450381679389	47.0	1.7251908396946565	-113.0	-0.3253012048192771	1286.0	9.168674698795181	2074.0	0.1566265060240964	2034.0	-0.4109090909090909	452.0	-0.02181818181818182	-24.0	-0.23673469387755103	232.0	1.5228925959182813E12	1.522892595927E12	1601.5625	52480.0	0.0	0.0	
-0.6259541984732824	-7.0	0.10687022900763359	41.0	1.816793893129771	-119.0	-0.21686746987951808	1287.0	9.156626506024097	2065.0	0.14457831325301207	2035.0	-0.4081818181818182	449.0	-0.01090909090909091	-12.0	-0.23979591836734696	235.0	1.5228925959221875E12	1.522892595927E12	1605.46875	52608.0	0.0	0.0	
-0.47328244274809156	-9.0	0.13740458015267176	31.0	1.7404580152671756	-114.0	-0.13253012048192772	1287.0	9.156626506024097	2058.0	0.08433734939759037	2040.0	-0.41454545454545455	456.0	-0.022727272727272728	-25.0	-0.23163265306122452	227.0	1.5228925959260938E12	1.522892595971E12	1609.375	52736.0	0.0	0.0	
-0.4580152671755725	0.0	0.0	30.0	1.9083969465648853	-125.0	-0.04819277108433735	1284.0	9.19277108433735	2051.0	0.024096385542168676	2045.0	-0.41454545454545455	456.0	-0.017272727272727273	-19.0	-0.23163265306122452	227.0	1.52289259593E12	1.522892595972E12	1613.28125	52864.0	0.0	0.0	
-0.5190839694656488	-15.0	0.22900763358778625	34.0	1.8015267175572518	-118.0	-0.060240963855421686	1283.0	9.204819277108435	2052.0	-0.024096385542168676	2049.0	-0.4090909090909091	450.0	-0.017272727272727273	-19.0	-0.2326530612244898	228.0	1.5228925959339063E12	1.522892595972E12	1617.1875	52992.0	0.0	0.0	
-0.7786259541984732	-40.0	0.6106870229007634	51.0	1.7404580152671756	-114.0	-0.08433734939759037	1281.0	9.228915662650603	2054.0	-0.04819277108433735	2051.0	-0.4109090909090909	452.0	-0.012727272727272728	-14.0	-0.23367346938775513	229.0	1.5228925959378125E12	1.522892595973E12	1621.09375	53120.0	0.0	0.0	
-0.9618320610687022	-49.0	0.7480916030534351	63.0	1.9694656488549618	-129.0	-0.12048192771084337	1283.0	9.204819277108435	2057.0	-0.03614457831325302	2050.0	-0.4163636363636364	458.0	-0.023636363636363636	-26.0	-0.23163265306122452	227.0	1.5228925959417188E12	1.522892595974E12	1625.0	53248.0	0.0	0.0	
-0.732824427480916	-35.0	0.5343511450381679	48.0	1.9236641221374045	-126.0	-0.060240963855421686	1282.0	9.216867469879519	2052.0	0.0	2047.0	-0.41	451.0	-0.016363636363636365	-18.0	-0.2326530612244898	228.0	1.522892595945625E12	1.522892595975E12	1628.90625	53376.0	0.0	0.0	
-0.8702290076335878	-42.0	0.6412213740458015	57.0	1.9236641221374045	-126.0	0.060240963855421686	1281.0	9.228915662650603	2042.0	0.012048192771084338	2046.0	-0.4072727272727273	448.0	-0.015454545454545455	-17.0	-0.23469387755102042	230.0	1.5228925959495313E12	1.522892595977E12	1632.8125	53504.0	0.0	0.0	
-0.732824427480916	-36.0	0.549618320610687	48.0	1.9389312977099236	-127.0	0.14457831325301207	1282.0	9.216867469879519	2035.0	-0.012048192771084338	2048.0	-0.41454545454545455	456.0	-0.02181818181818182	-24.0	-0.2306122448979592	226.0	1.5228925959534375E12	1.522892595977E12	1636.71875	53632.0	0.0	0.0	
-0.6870229007633587	-39.0	0.5954198473282443	45.0	1.5725190839694656	-103.0	0.12048192771084337	1281.0	9.228915662650603	2037.0	-0.024096385542168676	2049.0	-0.41454545454545455	456.0	-0.02181818181818182	-24.0	-0.2306122448979592	226.0	1.5228925959573438E12	1.522892595978E12	1640.625	53760.0	0.0	0.0	
-0.5954198473282443	-53.0	0.8091603053435115	39.0	1.3740458015267174	-90.0	0.08433734939759037	1282.0	9.216867469879519	2040.0	-0.04819277108433735	2051.0	-0.40636363636363637	447.0	-0.017272727272727273	-19.0	-0.23877551020408166	234.0	1.52289259596125E12	1.522892595979E12	1644.53125	53888.0	0.0	0.0	
-0.7022900763358778	-58.0	0.8854961832061068	46.0	1.5725190839694656	-103.0	0.03614457831325302	1282.0	9.216867469879519	2044.0	-0.07228915662650603	2053.0	-0.4109090909090909	452.0	-0.013636363636363636	-15.0	-0.2326530612244898	228.0	1.5228925959651563E12	1.52289259598E12	1648.4375	54016.0	0.0	0.0	
-0.916030534351145	-71.0	1.083969465648855	60.0	1.5419847328244274	-101.0	-0.012048192771084338	1282.0	9.216867469879519	2048.0	-0.03614457831325302	2050.0	-0.4163636363636364	458.0	-0.022727272727272728	-25.0	-0.23163265306122452	227.0	1.5228925959690625E12	1.522892595981E12	1652.34375	54144.0	0.0	0.0	
-1.1450381679389312	-58.0	0.8854961832061068	75.0	1.5572519083969465	-102.0	0.0	1285.0	9.180722891566266	2047.0	-0.012048192771084338	2048.0	-0.4072727272727273	448.0	-0.016363636363636365	-18.0	-0.23673469387755103	232.0	1.5228925959729688E12	1.522892595983E12	1656.25	54272.0	0.0	0.0	
-1.0534351145038168	-47.0	0.7175572519083969	69.0	1.6030534351145038	-105.0	0.024096385542168676	1284.0	9.19277108433735	2045.0	0.04819277108433735	2043.0	-0.4118181818181818	453.0	-0.00909090909090909	-10.0	-0.2285714285714286	224.0	1.522892595976875E12	1.522892595984E12	1660.15625	54400.0	0.0	0.0	
-1.0534351145038168	-52.0	0.7938931297709924	69.0	1.7557251908396947	-115.0	0.04819277108433735	1285.0	9.180722891566266	2043.0	0.04819277108433735	2043.0	-0.4172727272727273	459.0	-0.02181818181818182	-24.0	-0.23163265306122452	227.0	1.5228925959807813E12	1.522892595984E12	1664.0625	54528.0	0.0	0.0	
-1.083969465648855	-72.0	1.099236641221374	71.0	1.5877862595419847	-104.0	0.03614457831325302	1285.0	9.180722891566266	2044.0	0.03614457831325302	2044.0	-0.4172727272727273	459.0	-0.02181818181818182	-24.0	-0.23163265306122452	227.0	1.5228925959846875E12	1.522892595996E12	1667.96875	54656.0	0.0	0.0	
-0.916030534351145	-56.0	0.8549618320610687	60.0	1.7404580152671756	-114.0	-0.012048192771084338	1286.0	9.168674698795181	2048.0	0.060240963855421686	2042.0	-0.4127272727272727	454.0	-0.012727272727272728	-14.0	-0.2295918367346939	225.0	1.5228925959885938E12	1.522892595997E12	1671.875	54784.0	0.0	0.0	
-0.916030534351145	-62.0	0.9465648854961831	60.0	1.3129770992366412	-86.0	-0.07228915662650603	1285.0	9.180722891566266	2053.0	0.04819277108433735	2043.0	-0.4127272727272727	454.0	-0.017272727272727273	-19.0	-0.2295918367346939	225.0	1.5228925959925E12	1.522892595997E12	1675.78125	54912.0	0.0	0.0	
-0.9465648854961831	-47.0	0.7175572519083969	62.0	1.465648854961832	-96.0	-0.0963855421686747	1284.0	9.19277108433735	2055.0	0.07228915662650603	2041.0	-0.4018181818181818	442.0	0.0018181818181818182	2.0	-0.2285714285714286	224.0	1.5228925959964063E12	1.522892596007E12	1679.6875	55040.0	0.0	0.0	
-1.282442748091603	-53.0	0.8091603053435115	84.0	1.5877862595419847	-104.0	-0.12048192771084337	1283.0	9.204819277108435	2057.0	0.08433734939759037	2040.0	-0.4081818181818182	449.0	-0.013636363636363636	-15.0	-0.23673469387755103	232.0	1.5228925960003125E12	1.522892596007E12	1683.59375	55168.0	0.0	0.0	
-1.450381679389313	-55.0	0.8396946564885496	95.0	1.5725190839694656	-103.0	-0.14457831325301207	1284.0	9.19277108433735	2059.0	0.14457831325301207	2035.0	-0.41363636363636364	455.0	-0.008181818181818182	-9.0	-0.2306122448979592	226.0	1.5228925960042188E12	1.522892596009E12	1687.5	55296.0	0.0	0.0	
-1.297709923664122	-48.0	0.732824427480916	85.0	1.7099236641221374	-112.0	-0.16867469879518074	1285.0	9.180722891566266	2061.0	0.20481927710843376	2030.0	-0.40454545454545454	445.0	-0.004545454545454545	-5.0	-0.23673469387755103	232.0	1.522892596008125E12	1.522892596024E12	1691.40625	55424.0	0.0	0.0	
-1.2366412213740459	-45.0	0.6870229007633587	81.0	1.7251908396946565	-113.0	-0.10843373493975904	1286.0	9.168674698795181	2056.0	0.24096385542168675	2027.0	-0.40454545454545454	445.0	-0.004545454545454545	-5.0	-0.23673469387755103	232.0	1.5228925960120313E12	1.522892596025E12	1695.3125	55552.0	0.0	0.0	
-1.1755725190839694	-42.0	0.6412213740458015	77.0	1.9083969465648853	-125.0	-0.060240963855421686	1286.0	9.168674698795181	2052.0	0.2530120481927711	2026.0	-0.40636363636363637	447.0	-0.017272727272727273	-19.0	-0.23673469387755103	232.0	1.5228925960159375E12	1.522892596026E12	1699.21875	55680.0	0.0	0.0	
-0.9465648854961831	-41.0	0.6259541984732824	62.0	1.984732824427481	-130.0	0.012048192771084338	1287.0	9.156626506024097	2046.0	0.20481927710843376	2030.0	-0.4127272727272727	454.0	-0.01090909090909091	-12.0	-0.2306122448979592	226.0	1.5228925960198438E12	1.522892596033E12	1703.125	55808.0	0.0	0.0	
-0.9770992366412213	-36.0	0.549618320610687	64.0	1.9236641221374045	-126.0	0.08433734939759037	1286.0	9.168674698795181	2040.0	0.14457831325301207	2035.0	-0.4109090909090909	452.0	-0.005454545454545455	-6.0	-0.22448979591836737	220.0	1.52289259602375E12	1.522892596034E12	1707.03125	55936.0	0.0	0.0	
-0.9770992366412213	-50.0	0.7633587786259541	64.0	1.648854961832061	-108.0	0.10843373493975904	1284.0	9.19277108433735	2038.0	0.10843373493975904	2038.0	-0.4090909090909091	450.0	-0.02090909090909091	-23.0	-0.23775510204081635	233.0	1.5228925960276563E12	1.522892596035E12	1710.9375	56064.0	0.0	0.0	
-1.1450381679389312	-34.0	0.5190839694656488	75.0	1.8625954198473282	-122.0	0.10843373493975904	1283.0	9.204819277108435	2038.0	0.07228915662650603	2041.0	-0.41454545454545455	456.0	-0.01090909090909091	-12.0	-0.22653061224489798	222.0	1.5228925960315625E12	1.522892596043E12	1714.84375	56192.0	0.0	0.0	
-1.083969465648855	-41.0	0.6259541984732824	71.0	1.7099236641221374	-112.0	0.060240963855421686	1282.0	9.216867469879519	2042.0	0.0963855421686747	2039.0	-0.4127272727272727	454.0	-0.006363636363636364	-7.0	-0.22755102040816327	223.0	1.5228925960354688E12	1.522892596044E12	1718.75	56320.0	0.0	0.0	
-1.3129770992366412	-52.0	0.7938931297709924	86.0	1.8473282442748091	-121.0	0.060240963855421686	1283.0	9.204819277108435	2042.0	0.12048192771084337	2037.0	-0.4127272727272727	454.0	-0.006363636363636364	-7.0	-0.22755102040816327	223.0	1.522892596039375E12	1.522892596045E12	1722.65625	56448.0	0.0	0.0	
-1.0687022900763359	-61.0	0.9312977099236641	70.0	1.8015267175572518	-118.0	0.07228915662650603	1283.0	9.204819277108435	2041.0	0.14457831325301207	2035.0	-0.4090909090909091	450.0	-0.022727272727272728	-25.0	-0.23673469387755103	232.0	1.5228925960432813E12	1.522892596054E12	1726.5625	56576.0	0.0	0.0	
-1.083969465648855	-58.0	0.8854961832061068	71.0	1.5877862595419847	-104.0	0.07228915662650603	1284.0	9.19277108433735	2041.0	0.16867469879518074	2033.0	-0.40636363636363637	447.0	0.005454545454545455	6.0	-0.23571428571428574	231.0	1.5228925960471875E12	1.522892596055E12	1730.46875	56704.0	0.0	0.0	
-1.1755725190839694	-41.0	0.6259541984732824	77.0	1.8473282442748091	-121.0	0.07228915662650603	1285.0	9.180722891566266	2041.0	0.14457831325301207	2035.0	-0.41454545454545455	456.0	-0.02181818181818182	-24.0	-0.23469387755102042	230.0	1.5228925960510938E12	1.522892596056E12	1734.375	56832.0	0.0	0.0	
-1.0381679389312977	-48.0	0.732824427480916	68.0	1.7862595419847327	-117.0	0.12048192771084337	1284.0	9.19277108433735	2037.0	0.10843373493975904	2038.0	-0.4081818181818182	449.0	-0.02181818181818182	-24.0	-0.23469387755102042	230.0	1.522892596055E12	1.522892596057E12	1738.28125	56960.0	0.0	0.0	
-1.0076335877862594	-36.0	0.549618320610687	66.0	1.6793893129770991	-110.0	0.10843373493975904	1284.0	9.19277108433735	2038.0	0.060240963855421686	2042.0	-0.4036363636363636	444.0	-0.008181818181818182	-9.0	-0.2295918367346939	225.0	1.5228925960589063E12	1.522892596075E12	1742.1875	57088.0	0.0	0.0	
-1.2061068702290076	-35.0	0.5343511450381679	79.0	1.7251908396946565	-113.0	0.10843373493975904	1284.0	9.19277108433735	2038.0	0.04819277108433735	2043.0	-0.4036363636363636	444.0	-0.016363636363636365	-18.0	-0.23469387755102042	230.0	1.5228925960628125E12	1.522892596076E12	1746.09375	57216.0	0.0	0.0	
-1.3435114503816794	-44.0	0.6717557251908397	88.0	1.648854961832061	-108.0	0.08433734939759037	1283.0	9.204819277108435	2040.0	0.060240963855421686	2042.0	-0.41454545454545455	456.0	-0.016363636363636365	-18.0	-0.23469387755102042	230.0	1.5228925960667188E12	1.522892596077E12	1750.0	57344.0	0.0	0.0	
-1.3587786259541985	-48.0	0.732824427480916	89.0	1.6793893129770991	-110.0	0.04819277108433735	1285.0	9.180722891566266	2043.0	0.07228915662650603	2041.0	-0.4081818181818182	449.0	-0.019090909090909092	-21.0	-0.23571428571428574	231.0	1.522892596070625E12	1.522892596083E12	1753.90625	57472.0	0.0	0.0	
-1.3587786259541985	-47.0	0.7175572519083969	89.0	1.7557251908396947	-115.0	-0.024096385542168676	1283.0	9.204819277108435	2049.0	0.12048192771084337	2037.0	-0.40454545454545454	445.0	-0.013636363636363636	-15.0	-0.22755102040816327	223.0	1.5228925960745313E12	1.522892596084E12	1757.8125	57600.0	0.0	0.0	
-1.2213740458015268	-51.0	0.7786259541984732	80.0	1.7251908396946565	-113.0	-0.024096385542168676	1284.0	9.19277108433735	2049.0	0.1566265060240964	2034.0	-0.4109090909090909	452.0	-0.015454545454545455	-17.0	-0.23673469387755103	232.0	1.5228925960784375E12	1.522892596085E12	1761.71875	57728.0	0.0	0.0	
-1.282442748091603	-50.0	0.7633587786259541	84.0	1.8015267175572518	-118.0	-0.024096385542168676	1285.0	9.180722891566266	2049.0	0.18072289156626506	2032.0	-0.4072727272727273	448.0	-0.022727272727272728	-25.0	-0.23163265306122452	227.0	1.5228925960823438E12	1.522892596122E12	1765.625	57856.0	0.0	0.0	
-1.3587786259541985	-40.0	0.6106870229007634	89.0	1.8473282442748091	-121.0	0.024096385542168676	1285.0	9.180722891566266	2045.0	0.16867469879518074	2033.0	-0.4072727272727273	448.0	0.006363636363636364	7.0	-0.23571428571428574	231.0	1.52289259608625E12	1.522892596123E12	1769.53125	57984.0	0.0	0.0	
-1.3435114503816794	-31.0	0.47328244274809156	88.0	1.7404580152671756	-114.0	0.08433734939759037	1285.0	9.180722891566266	2040.0	0.16867469879518074	2033.0	-0.4072727272727273	448.0	0.006363636363636364	7.0	-0.23571428571428574	231.0	1.5228925960901563E12	1.522892596124E12	1773.4375	58112.0	0.0	0.0	
-0.916030534351145	-31.0	0.47328244274809156	60.0	1.7862595419847327	-117.0	0.18072289156626506	1283.0	9.204819277108435	2032.0	0.1566265060240964	2034.0	-0.4118181818181818	453.0	-0.013636363636363636	-15.0	-0.23571428571428574	231.0	1.5228925960940625E12	1.522892596125E12	1777.34375	58240.0	0.0	0.0	
-1.3587786259541985	-36.0	0.549618320610687	89.0	1.465648854961832	-96.0	0.2530120481927711	1284.0	9.19277108433735	2026.0	0.1566265060240964	2034.0	-0.41	451.0	-0.014545454545454545	-16.0	-0.2295918367346939	225.0	1.5228925960979688E12	1.522892596125E12	1781.25	58368.0	0.0	0.0	
-1.3129770992366412	-44.0	0.6717557251908397	86.0	1.4045801526717556	-92.0	0.21686746987951808	1283.0	9.204819277108435	2029.0	0.1566265060240964	2034.0	-0.41363636363636364	455.0	-0.011818181818181818	-13.0	-0.2326530612244898	228.0	1.522892596101875E12	1.522892596126E12	1785.15625	58496.0	0.0	0.0	
-1.4045801526717556	-51.0	0.7786259541984732	92.0	1.4198473282442747	-93.0	0.14457831325301207	1283.0	9.204819277108435	2035.0	0.16867469879518074	2033.0	-0.41	451.0	-0.02090909090909091	-23.0	-0.23571428571428574	231.0	1.5228925961057813E12	1.522892596127E12	1789.0625	58624.0	0.0	0.0	
-1.4351145038167938	-48.0	0.732824427480916	94.0	1.2519083969465647	-82.0	0.07228915662650603	1283.0	9.204819277108435	2041.0	0.18072289156626506	2032.0	-0.41	451.0	-0.0036363636363636364	-4.0	-0.23469387755102042	230.0	1.5228925961096875E12	1.522892596128E12	1792.96875	58752.0	0.0	0.0	
-1.4809160305343512	-54.0	0.8244274809160305	97.0	1.465648854961832	-96.0	0.03614457831325302	1283.0	9.204819277108435	2044.0	0.20481927710843376	2030.0	-0.4109090909090909	452.0	-0.012727272727272728	-14.0	-0.2306122448979592	226.0	1.5228925961135938E12	1.522892596128E12	1796.875	58880.0	0.0	0.0	
-1.1755725190839694	-38.0	0.5801526717557252	77.0	1.6793893129770991	-110.0	0.012048192771084338	1283.0	9.204819277108435	2046.0	0.18072289156626506	2032.0	-0.4109090909090909	452.0	-0.012727272727272728	-14.0	-0.2306122448979592	226.0	1.5228925961175E12	1.52289259613E12	1800.78125	59008.0	0.0	0.0	
-1.3740458015267174	-53.0	0.8091603053435115	90.0	1.648854961832061	-108.0	0.04819277108433735	1284.0	9.19277108433735	2043.0	0.18072289156626506	2032.0	-0.4090909090909091	450.0	-0.02181818181818182	-24.0	-0.23571428571428574	231.0	1.5228925961214063E12	1.52289259613E12	1804.6875	59136.0	0.0	0.0	
-1.3282442748091603	-47.0	0.7175572519083969	87.0	1.3435114503816794	-88.0	0.060240963855421686	1284.0	9.19277108433735	2042.0	0.21686746987951808	2029.0	-0.4081818181818182	449.0	-0.006363636363636364	-7.0	-0.2306122448979592	226.0	1.5228925961253125E12	1.522892596131E12	1808.59375	59264.0	0.0	0.0	
-1.3282442748091603	-51.0	0.7786259541984732	87.0	1.4351145038167938	-94.0	0.024096385542168676	1284.0	9.19277108433735	2045.0	0.22891566265060243	2028.0	-0.41	451.0	-0.012727272727272728	-14.0	-0.23163265306122452	227.0	1.5228925961292188E12	1.522892596147E12	1812.5	59392.0	0.0	0.0	
-1.4961832061068703	-33.0	0.5038167938931297	98.0	1.282442748091603	-84.0	-0.012048192771084338	1284.0	9.19277108433735	2048.0	0.24096385542168675	2027.0	-0.4118181818181818	453.0	-0.02181818181818182	-24.0	-0.23571428571428574	231.0	1.522892596133125E12	1.522892596148E12	1816.40625	59520.0	0.0	0.0	
-1.282442748091603	-22.0	0.33587786259541985	84.0	1.3435114503816794	-88.0	-0.04819277108433735	1285.0	9.180722891566266	2051.0	0.27710843373493976	2024.0	-0.4009090909090909	441.0	-0.017272727272727273	-19.0	-0.2306122448979592	226.0	1.5228925961370313E12	1.522892596149E12	1820.3125	59648.0	0.0	0.0	
-1.0687022900763359	-16.0	0.24427480916030533	70.0	1.3740458015267174	-90.0	-0.060240963855421686	1285.0	9.180722891566266	2052.0	0.22891566265060243	2028.0	-0.40545454545454546	446.0	0.0027272727272727275	3.0	-0.2326530612244898	228.0	1.5228925961409375E12	1.522892596151E12	1824.21875	59776.0	0.0	0.0	
-1.0687022900763359	-7.0	0.10687022900763359	70.0	1.3893129770992365	-91.0	0.0	1284.0	9.19277108433735	2047.0	0.21686746987951808	2029.0	-0.40545454545454546	446.0	0.0027272727272727275	3.0	-0.2326530612244898	228.0	1.5228925961448438E12	1.522892596152E12	1828.125	59904.0	0.0	0.0	
-1.282442748091603	-19.0	0.2900763358778626	84.0	1.6946564885496183	-111.0	0.04819277108433735	1286.0	9.168674698795181	2043.0	0.1927710843373494	2031.0	-0.4090909090909091	450.0	-0.0027272727272727275	-3.0	-0.23571428571428574	231.0	1.52289259614875E12	1.522892596152E12	1832.03125	60032.0	0.0	0.0	
-1.3282442748091603	-26.0	0.3969465648854962	87.0	1.6030534351145038	-105.0	0.07228915662650603	1283.0	9.204819277108435	2041.0	0.18072289156626506	2032.0	-0.4072727272727273	448.0	-0.01090909090909091	-12.0	-0.23571428571428574	231.0	1.5228925961526563E12	1.522892596163E12	1835.9375	60160.0	0.0	0.0	
-1.1755725190839694	-41.0	0.6259541984732824	77.0	1.5877862595419847	-104.0	0.024096385542168676	1283.0	9.204819277108435	2045.0	0.13253012048192772	2036.0	-0.41545454545454547	457.0	-0.016363636363636365	-18.0	-0.23163265306122452	227.0	1.5228925961565625E12	1.522892596164E12	1839.84375	60288.0	0.0	0.0	
-1.3740458015267174	-41.0	0.6259541984732824	90.0	1.3740458015267174	-90.0	-0.024096385542168676	1284.0	9.19277108433735	2049.0	0.13253012048192772	2036.0	-0.4109090909090909	452.0	-0.0027272727272727275	-3.0	-0.2285714285714286	224.0	1.5228925961604688E12	1.522892596165E12	1843.75	60416.0	0.0	0.0	
-1.5114503816793892	-45.0	0.6870229007633587	99.0	1.4351145038167938	-94.0	-0.012048192771084338	1284.0	9.19277108433735	2048.0	0.14457831325301207	2035.0	-0.41454545454545455	456.0	-0.01090909090909091	-12.0	-0.2326530612244898	228.0	1.522892596164375E12	1.522892596176E12	1847.65625	60544.0	0.0	0.0	
-1.282442748091603	-29.0	0.4427480916030534	84.0	1.4198473282442747	-93.0	0.012048192771084338	1286.0	9.168674698795181	2046.0	0.14457831325301207	2035.0	-0.41454545454545455	456.0	-0.016363636363636365	-18.0	-0.23163265306122452	227.0	1.5228925961682813E12	1.522892596176E12	1851.5625	60672.0	0.0	0.0	
-1.3435114503816794	-26.0	0.3969465648854962	88.0	1.3740458015267174	-90.0	0.024096385542168676	1283.0	9.204819277108435	2045.0	0.14457831325301207	2035.0	-0.41454545454545455	456.0	-0.016363636363636365	-18.0	-0.23163265306122452	227.0	1.5228925961721875E12	1.522892596178E12	1855.46875	60800.0	0.0	0.0	
-1.3282442748091603	-27.0	0.41221374045801523	87.0	1.3435114503816794	-88.0	0.012048192771084338	1284.0	9.19277108433735	2046.0	0.13253012048192772	2036.0	-0.41545454545454547	457.0	-0.022727272727272728	-25.0	-0.23877551020408166	234.0	1.5228925961760938E12	1.522892596196E12	1859.375	60928.0	0.0	0.0	
-1.129770992366412	-27.0	0.41221374045801523	74.0	1.5877862595419847	-104.0	0.03614457831325302	1285.0	9.180722891566266	2044.0	0.13253012048192772	2036.0	-0.4109090909090909	452.0	-0.006363636363636364	-7.0	-0.2326530612244898	228.0	1.52289259618E12	1.522892596197E12	1863.28125	61056.0	0.0	0.0	
-1.2366412213740459	-30.0	0.4580152671755725	81.0	1.4351145038167938	-94.0	0.07228915662650603	1283.0	9.204819277108435	2041.0	0.0963855421686747	2039.0	-0.4127272727272727	454.0	-0.017272727272727273	-19.0	-0.23163265306122452	227.0	1.5228925961839063E12	1.522892596198E12	1867.1875	61184.0	0.0	0.0	
-1.4045801526717556	-57.0	0.8702290076335878	92.0	1.450381679389313	-95.0	0.12048192771084337	1283.0	9.204819277108435	2037.0	0.08433734939759037	2040.0	-0.4118181818181818	453.0	-0.019090909090909092	-21.0	-0.2295918367346939	225.0	1.5228925961878125E12	1.522892596207E12	1871.09375	61312.0	0.0	0.0	
-1.4045801526717556	-55.0	0.8396946564885496	92.0	1.450381679389313	-95.0	0.12048192771084337	1282.0	9.216867469879519	2037.0	0.0963855421686747	2039.0	-0.4081818181818182	449.0	-0.006363636363636364	-7.0	-0.2306122448979592	226.0	1.5228925961917188E12	1.522892596208E12	1875.0	61440.0	0.0	0.0	
-1.4351145038167938	-66.0	1.0076335877862594	94.0	1.465648854961832	-96.0	0.13253012048192772	1282.0	9.216867469879519	2036.0	0.10843373493975904	2038.0	-0.41454545454545455	456.0	-0.019090909090909092	-21.0	-0.23163265306122452	227.0	1.522892596195625E12	1.522892596208E12	1878.90625	61568.0	0.0	0.0	
-1.3740458015267174	-54.0	0.8244274809160305	90.0	1.3129770992366412	-86.0	0.08433734939759037	1282.0	9.216867469879519	2040.0	0.14457831325301207	2035.0	-0.41454545454545455	456.0	-0.019090909090909092	-21.0	-0.23163265306122452	227.0	1.5228925961995313E12	1.522892596211E12	1882.8125	61696.0	0.0	0.0	
-1.5725190839694656	-55.0	0.8396946564885496	103.0	1.1755725190839694	-77.0	0.060240963855421686	1283.0	9.204819277108435	2042.0	0.1927710843373494	2031.0	-0.41363636363636364	455.0	-0.022727272727272728	-25.0	-0.23673469387755103	232.0	1.5228925962034375E12	1.522892596212E12	1886.71875	61824.0	0.0	0.0	
-1.3587786259541985	-55.0	0.8396946564885496	89.0	1.2213740458015268	-80.0	0.024096385542168676	1284.0	9.19277108433735	2045.0	0.1927710843373494	2031.0	-0.3981818181818182	438.0	-0.006363636363636364	-7.0	-0.23571428571428574	231.0	1.5228925962073438E12	1.522892596213E12	1890.625	61952.0	0.0	0.0	
-1.3435114503816794	-50.0	0.7633587786259541	88.0	1.2061068702290076	-79.0	0.0	1283.0	9.204819277108435	2047.0	0.22891566265060243	2028.0	-0.41363636363636364	455.0	-0.02181818181818182	-24.0	-0.23571428571428574	231.0	1.52289259621125E12	1.522892596222E12	1894.53125	62080.0	0.0	0.0	
-1.4961832061068703	-60.0	0.916030534351145	98.0	1.297709923664122	-85.0	-0.012048192771084338	1285.0	9.180722891566266	2048.0	0.20481927710843376	2030.0	-0.4090909090909091	450.0	-0.02	-22.0	-0.23571428571428574	231.0	1.5228925962151563E12	1.522892596223E12	1898.4375	62208.0	0.0	0.0	
-1.282442748091603	-38.0	0.5801526717557252	84.0	1.114503816793893	-73.0	0.04819277108433735	1285.0	9.180722891566266	2043.0	0.21686746987951808	2029.0	-0.4027272727272727	443.0	-0.017272727272727273	-19.0	-0.23469387755102042	230.0	1.5228925962190625E12	1.522892596225E12	1902.34375	62336.0	0.0	0.0	
-1.4809160305343512	-43.0	0.6564885496183206	97.0	1.083969465648855	-71.0	0.060240963855421686	1284.0	9.19277108433735	2042.0	0.20481927710843376	2030.0	-0.4027272727272727	443.0	-0.0027272727272727275	-3.0	-0.23469387755102042	230.0	1.5228925962229688E12	1.522892596237E12	1906.25	62464.0	0.0	0.0	
-1.3740458015267174	-45.0	0.6870229007633587	90.0	1.2519083969465647	-82.0	0.060240963855421686	1285.0	9.180722891566266	2042.0	0.1927710843373494	2031.0	-0.40545454545454546	446.0	-0.0027272727272727275	-3.0	-0.23877551020408166	234.0	1.522892596226875E12	1.522892596238E12	1910.15625	62592.0	0.0	0.0	
-1.4045801526717556	-57.0	0.8702290076335878	92.0	1.083969465648855	-71.0	0.04819277108433735	1284.0	9.19277108433735	2043.0	0.24096385542168675	2027.0	-0.4118181818181818	453.0	-0.02181818181818182	-24.0	-0.23775510204081635	233.0	1.5228925962307813E12	1.52289259624E12	1914.0625	62720.0	0.0	0.0	
-1.3435114503816794	-50.0	0.7633587786259541	88.0	1.3740458015267174	-90.0	0.024096385542168676	1283.0	9.204819277108435	2045.0	0.2530120481927711	2026.0	-0.41	451.0	-0.012727272727272728	-14.0	-0.23571428571428574	231.0	1.5228925962346875E12	1.522892596273E12	1917.96875	62848.0	0.0	0.0	
-1.2519083969465647	-23.0	0.3511450381679389	82.0	1.1450381679389312	-75.0	0.012048192771084338	1285.0	9.180722891566266	2046.0	0.27710843373493976	2024.0	-0.4081818181818182	449.0	-0.005454545454545455	-6.0	-0.2295918367346939	225.0	1.5228925962385938E12	1.522892596274E12	1921.875	62976.0	0.0	0.0	
-1.1755725190839694	-35.0	0.5343511450381679	77.0	1.282442748091603	-84.0	0.024096385542168676	1285.0	9.180722891566266	2045.0	0.3253012048192771	2020.0	-0.4090909090909091	450.0	-0.02090909090909091	-23.0	-0.23673469387755103	232.0	1.5228925962425E12	1.522892596275E12	1925.78125	63104.0	0.0	0.0	
-1.1755725190839694	-19.0	0.2900763358778626	77.0	1.297709923664122	-85.0	0.060240963855421686	1285.0	9.180722891566266	2042.0	0.3493975903614458	2018.0	-0.41	451.0	-0.012727272727272728	-14.0	-0.23979591836734696	235.0	1.5228925962464063E12	1.522892596276E12	1929.6875	63232.0	0.0	0.0	
-1.099236641221374	-22.0	0.33587786259541985	72.0	1.3587786259541985	-89.0	0.0963855421686747	1286.0	9.168674698795181	2039.0	0.3373493975903615	2019.0	-0.41	451.0	-0.012727272727272728	-14.0	-0.23979591836734696	235.0	1.5228925962503125E12	1.522892596277E12	1933.59375	63360.0	0.0	0.0	
-1.0229007633587786	-11.0	0.16793893129770993	67.0	1.2671755725190839	-83.0	0.0963855421686747	1284.0	9.19277108433735	2039.0	0.27710843373493976	2024.0	-0.41545454545454547	457.0	-0.02181818181818182	-24.0	-0.23163265306122452	227.0	1.5228925962542188E12	1.522892596278E12	1937.5	63488.0	0.0	0.0	
-1.099236641221374	-12.0	0.183206106870229	72.0	1.1755725190839694	-77.0	0.12048192771084337	1285.0	9.180722891566266	2037.0	0.26506024096385544	2025.0	-0.4072727272727273	448.0	-0.014545454545454545	-16.0	-0.23673469387755103	232.0	1.522892596258125E12	1.522892596279E12	1941.40625	63616.0	0.0	0.0	
-1.0687022900763359	-31.0	0.47328244274809156	70.0	1.3740458015267174	-90.0	0.1566265060240964	1285.0	9.180722891566266	2034.0	0.22891566265060243	2028.0	-0.4109090909090909	452.0	-0.012727272727272728	-14.0	-0.23979591836734696	235.0	1.5228925962620313E12	1.52289259628E12	1945.3125	63744.0	0.0	0.0	
-1.0687022900763359	-20.0	0.3053435114503817	70.0	1.282442748091603	-84.0	0.1927710843373494	1283.0	9.204819277108435	2031.0	0.1927710843373494	2031.0	-0.41545454545454547	457.0	-0.02090909090909091	-23.0	-0.2326530612244898	228.0	1.5228925962659375E12	1.52289259628E12	1949.21875	63872.0	0.0	0.0	
-1.129770992366412	-9.0	0.13740458015267176	74.0	1.450381679389313	-95.0	0.1927710843373494	1284.0	9.19277108433735	2031.0	0.16867469879518074	2033.0	-0.40545454545454546	446.0	-0.013636363636363636	-15.0	-0.23673469387755103	232.0	1.5228925962698438E12	1.522892596281E12	1953.125	64000.0	0.0	0.0	
-1.099236641221374	-18.0	0.2748091603053435	72.0	1.2519083969465647	-82.0	0.2530120481927711	1285.0	9.180722891566266	2026.0	0.14457831325301207	2035.0	-0.4081818181818182	449.0	-0.011818181818181818	-13.0	-0.23469387755102042	230.0	1.52289259627375E12	1.522892596282E12	1957.03125	64128.0	0.0	0.0	
-1.1755725190839694	-31.0	0.47328244274809156	77.0	1.2213740458015268	-80.0	0.26506024096385544	1284.0	9.19277108433735	2025.0	0.10843373493975904	2038.0	-0.4081818181818182	449.0	-0.011818181818181818	-13.0	-0.23469387755102042	230.0	1.5228925962776563E12	1.522892596283E12	1960.9375	64256.0	0.0	0.0	
-1.1603053435114503	-35.0	0.5343511450381679	76.0	1.2671755725190839	-83.0	0.28915662650602414	1284.0	9.19277108433735	2023.0	0.060240963855421686	2042.0	-0.41363636363636364	455.0	-0.02090909090909091	-23.0	-0.2326530612244898	228.0	1.5228925962815625E12	1.522892596299E12	1964.84375	64384.0	0.0	0.0	
-0.8702290076335878	-22.0	0.33587786259541985	57.0	1.0687022900763359	-70.0	0.26506024096385544	1284.0	9.19277108433735	2025.0	-0.012048192771084338	2048.0	-0.40636363636363637	447.0	-0.01818181818181818	-20.0	-0.23877551020408166	234.0	1.5228925962854688E12	1.5228925963E12	1968.75	64512.0	0.0	0.0	
-0.9618320610687022	-32.0	0.48854961832061067	63.0	0.9770992366412213	-64.0	0.2530120481927711	1284.0	9.19277108433735	2026.0	-0.08433734939759037	2054.0	-0.4036363636363636	444.0	-0.00909090909090909	-10.0	-0.23367346938775513	229.0	1.522892596289375E12	1.522892596301E12	1972.65625	64640.0	0.0	0.0	
-1.4351145038167938	-30.0	0.4580152671755725	94.0	1.0381679389312977	-68.0	0.2530120481927711	1284.0	9.19277108433735	2026.0	-0.060240963855421686	2052.0	-0.4127272727272727	454.0	-0.004545454545454545	-5.0	-0.2326530612244898	228.0	1.5228925962932813E12	1.522892596303E12	1976.5625	64768.0	0.0	0.0	
-1.4198473282442747	-45.0	0.6870229007633587	93.0	0.8396946564885496	-55.0	0.1927710843373494	1283.0	9.204819277108435	2031.0	-0.012048192771084338	2048.0	-0.4081818181818182	449.0	-0.017272727272727273	-19.0	-0.23469387755102042	230.0	1.5228925962971875E12	1.522892596304E12	1980.46875	64896.0	0.0	0.0	
-1.4351145038167938	-52.0	0.7938931297709924	94.0	0.7633587786259541	-50.0	0.1566265060240964	1283.0	9.204819277108435	2034.0	0.012048192771084338	2046.0	-0.41	451.0	-0.005454545454545455	-6.0	-0.23163265306122452	227.0	1.5228925963010938E12	1.522892596305E12	1984.375	65024.0	0.0	0.0	
-1.8015267175572518	-55.0	0.8396946564885496	118.0	0.916030534351145	-60.0	0.13253012048192772	1283.0	9.204819277108435	2036.0	-0.012048192771084338	2048.0	-0.41	451.0	-0.005454545454545455	-6.0	-0.23163265306122452	227.0	1.522892596305E12	1.522892596305E12	1988.28125	65152.0	0.0	0.0	
-1.5877862595419847	-44.0	0.6717557251908397	104.0	0.8702290076335878	-57.0	0.10843373493975904	1284.0	9.19277108433735	2038.0	0.0	2047.0	-0.41363636363636364	455.0	-0.02181818181818182	-24.0	-0.23469387755102042	230.0	1.5228925963089063E12	1.522892596319E12	1992.1875	65280.0	0.0	0.0	
-1.5419847328244274	-55.0	0.8396946564885496	101.0	0.7022900763358778	-46.0	0.04819277108433735	1284.0	9.19277108433735	2043.0	0.03614457831325302	2044.0	-0.4090909090909091	450.0	-0.017272727272727273	-19.0	-0.23163265306122452	227.0	1.5228925963128125E12	1.522892596321E12	1996.09375	65408.0	0.0	0.0	
-1.3893129770992365	-46.0	0.7022900763358778	91.0	0.6106870229007634	-40.0	0.0	1285.0	9.180722891566266	2047.0	0.012048192771084338	2046.0	-0.4027272727272727	443.0	-0.00909090909090909	-10.0	-0.23673469387755103	232.0	1.5228925963167188E12	1.522892596322E12	2000.0	0.0	0.0	0.0	
-1.450381679389313	-61.0	0.9312977099236641	95.0	0.5038167938931297	-33.0	-0.012048192771084338	1283.0	9.204819277108435	2048.0	0.0	2047.0	-0.4127272727272727	454.0	-0.02181818181818182	-24.0	-0.23163265306122452	227.0	1.522892596320625E12	1.522892596333E12	2003.90625	128.0	0.0	0.0	
-1.7404580152671756	-59.0	0.9007633587786259	114.0	0.7022900763358778	-46.0	-0.08433734939759037	1283.0	9.204819277108435	2054.0	0.04819277108433735	2043.0	-0.4090909090909091	450.0	-0.012727272727272728	-14.0	-0.23367346938775513	229.0	1.5228925963245313E12	1.522892596335E12	2007.8125	256.0	0.0	0.0	
-1.816793893129771	-55.0	0.8396946564885496	119.0	0.6412213740458015	-42.0	-0.13253012048192772	1285.0	9.180722891566266	2058.0	0.08433734939759037	2040.0	-0.41	451.0	-0.006363636363636364	-7.0	-0.2306122448979592	226.0	1.5228925963284375E12	1.522892596336E12	2011.71875	384.0	0.0	0.0	
-1.7862595419847327	-54.0	0.8244274809160305	117.0	0.732824427480916	-48.0	-0.1927710843373494	1284.0	9.19277108433735	2063.0	0.1566265060240964	2034.0	-0.41	451.0	-0.006363636363636364	-7.0	-0.2306122448979592	226.0	1.5228925963323438E12	1.522892596349E12	2015.625	512.0	0.0	0.0	
-1.9389312977099236	-49.0	0.7480916030534351	127.0	0.6717557251908397	-44.0	-0.22891566265060243	1287.0	9.156626506024097	2066.0	0.20481927710843376	2030.0	-0.4109090909090909	452.0	-0.006363636363636364	-7.0	-0.23367346938775513	229.0	1.52289259633625E12	1.52289259635E12	2019.53125	640.0	0.0	0.0	
-1.816793893129771	-52.0	0.7938931297709924	119.0	0.9465648854961831	-62.0	-0.1566265060240964	1286.0	9.168674698795181	2060.0	0.2530120481927711	2026.0	-0.4081818181818182	449.0	-0.015454545454545455	-17.0	-0.23469387755102042	230.0	1.5228925963401563E12	1.522892596357E12	2023.4375	768.0	0.0	0.0	
-1.8015267175572518	-43.0	0.6564885496183206	118.0	1.1755725190839694	-77.0	-0.10843373493975904	1286.0	9.168674698795181	2056.0	0.27710843373493976	2024.0	-0.4127272727272727	454.0	-0.008181818181818182	-9.0	-0.23469387755102042	230.0	1.5228925963440625E12	1.522892596365E12	2027.34375	896.0	0.0	0.0	
-1.7709923664122136	-45.0	0.6870229007633587	116.0	0.9618320610687022	-63.0	-0.060240963855421686	1283.0	9.204819277108435	2052.0	0.28915662650602414	2023.0	-0.41454545454545455	456.0	-0.015454545454545455	-17.0	-0.23367346938775513	229.0	1.5228925963479688E12	1.522892596366E12	2031.25	1024.0	0.0	0.0	
-1.8931297709923662	-53.0	0.8091603053435115	124.0	0.9312977099236641	-61.0	-0.08433734939759037	1284.0	9.19277108433735	2054.0	0.28915662650602414	2023.0	-0.4090909090909091	450.0	-0.011818181818181818	-13.0	-0.2295918367346939	225.0	1.522892596351875E12	1.522892596367E12	2035.15625	1152.0	0.0	0.0	
-1.6946564885496183	-49.0	0.7480916030534351	111.0	0.9618320610687022	-63.0	-0.1566265060240964	1283.0	9.204819277108435	2060.0	0.28915662650602414	2023.0	-0.4090909090909091	450.0	-0.012727272727272728	-14.0	-0.2285714285714286	224.0	1.5228925963557813E12	1.522892596369E12	2039.0625	1280.0	0.0	0.0	
-1.83206106870229	-62.0	0.9465648854961831	120.0	0.6870229007633587	-45.0	-0.1927710843373494	1282.0	9.216867469879519	2063.0	0.3493975903614458	2018.0	-0.4118181818181818	453.0	-0.012727272727272728	-14.0	-0.2285714285714286	224.0	1.5228925963596875E12	1.52289259637E12	2042.96875	1408.0	0.0	0.0	
-2.015267175572519	-59.0	0.9007633587786259	132.0	0.9770992366412213	-64.0	-0.20481927710843376	1283.0	9.204819277108435	2064.0	0.42168674698795183	2012.0	-0.40636363636363637	447.0	-0.0036363636363636364	-4.0	-0.23877551020408166	234.0	1.5228925963635938E12	1.522892596371E12	2046.875	1536.0	0.0	0.0	
-1.8625954198473282	-55.0	0.8396946564885496	122.0	1.099236641221374	-72.0	-0.14457831325301207	1284.0	9.19277108433735	2059.0	0.4819277108433735	2007.0	-0.4081818181818182	449.0	-0.02	-22.0	-0.23571428571428574	231.0	1.5228925963675E12	1.522892596377E12	2050.78125	1664.0	0.0	0.0	
-1.5877862595419847	-49.0	0.7480916030534351	104.0	1.2366412213740459	-81.0	-0.024096385542168676	1286.0	9.168674698795181	2049.0	0.5060240963855422	2005.0	-0.40454545454545454	445.0	-0.011818181818181818	-13.0	-0.2326530612244898	228.0	1.5228925963714063E12	1.522892596378E12	2054.6875	1792.0	0.0	0.0	
-1.3282442748091603	-41.0	0.6259541984732824	87.0	1.129770992366412	-74.0	0.04819277108433735	1285.0	9.180722891566266	2043.0	0.49397590361445787	2006.0	-0.41454545454545455	456.0	-0.02	-22.0	-0.23469387755102042	230.0	1.5228925963753125E12	1.52289259638E12	2058.59375	1920.0	0.0	0.0	
-1.4045801526717556	-42.0	0.6412213740458015	92.0	1.114503816793893	-73.0	0.04819277108433735	1285.0	9.180722891566266	2043.0	0.46987951807228917	2008.0	-0.41	451.0	-0.02	-22.0	-0.23367346938775513	229.0	1.5228925963792188E12	1.52289259639E12	2062.5	2048.0	0.0	0.0	
-1.3129770992366412	-53.0	0.8091603053435115	86.0	0.9618320610687022	-63.0	0.0	1284.0	9.19277108433735	2047.0	0.39759036144578314	2014.0	-0.41	451.0	-0.02	-22.0	-0.23367346938775513	229.0	1.522892596383125E12	1.522892596392E12	2066.40625	2176.0	0.0	0.0	
-1.3893129770992365	-52.0	0.7938931297709924	91.0	0.8091603053435115	-53.0	-0.024096385542168676	1281.0	9.228915662650603	2049.0	0.3855421686746988	2015.0	-0.4118181818181818	453.0	-0.01	-11.0	-0.2306122448979592	226.0	1.5228925963870313E12	1.522892596394E12	2070.3125	2304.0	0.0	0.0	
-1.465648854961832	-41.0	0.6259541984732824	96.0	0.916030534351145	-60.0	-0.04819277108433735	1282.0	9.216867469879519	2051.0	0.39759036144578314	2014.0	-0.4109090909090909	452.0	-0.011818181818181818	-13.0	-0.2295918367346939	225.0	1.5228925963909375E12	1.522892596425E12	2074.21875	2432.0	0.0	0.0	
-1.4809160305343512	-43.0	0.6564885496183206	97.0	0.9618320610687022	-63.0	-0.08433734939759037	1283.0	9.204819277108435	2054.0	0.43373493975903615	2011.0	-0.4081818181818182	449.0	-0.02181818181818182	-24.0	-0.23673469387755103	232.0	1.5228925963948438E12	1.522892596427E12	2078.125	2560.0	0.0	0.0	
-1.3587786259541985	-46.0	0.7022900763358778	89.0	1.1603053435114503	-76.0	-0.10843373493975904	1284.0	9.19277108433735	2056.0	0.49397590361445787	2006.0	-0.4118181818181818	453.0	-0.013636363636363636	-15.0	-0.23163265306122452	227.0	1.52289259639875E12	1.522892596428E12	2082.03125	2688.0	0.0	0.0	
-1.2366412213740459	-47.0	0.7175572519083969	81.0	1.2213740458015268	-80.0	-0.10843373493975904	1284.0	9.19277108433735	2056.0	0.5180722891566265	2004.0	-0.4072727272727273	448.0	-0.0036363636363636364	-4.0	-0.23163265306122452	227.0	1.5228925964026563E12	1.522892596436E12	2085.9375	2816.0	0.0	0.0	
-1.1450381679389312	-52.0	0.7938931297709924	75.0	0.916030534351145	-60.0	-0.10843373493975904	1284.0	9.19277108433735	2056.0	0.5421686746987953	2002.0	-0.40545454545454546	446.0	-0.008181818181818182	-9.0	-0.23469387755102042	230.0	1.5228925964065625E12	1.522892596436E12	2089.84375	2944.0	0.0	0.0	
-1.0229007633587786	-52.0	0.7938931297709924	67.0	1.1755725190839694	-77.0	-0.1566265060240964	1283.0	9.204819277108435	2060.0	0.5060240963855422	2005.0	-0.40545454545454546	446.0	-0.008181818181818182	-9.0	-0.23469387755102042	230.0	1.5228925964104688E12	1.522892596437E12	2093.75	3072.0	0.0	0.0	
-0.732824427480916	-46.0	0.7022900763358778	48.0	1.1450381679389312	-75.0	-0.1927710843373494	1284.0	9.19277108433735	2063.0	0.49397590361445787	2006.0	-0.41454545454545455	456.0	-0.00909090909090909	-10.0	-0.23163265306122452	227.0	1.522892596414375E12	1.522892596438E12	2097.65625	3200.0	0.0	0.0	
-0.916030534351145	-33.0	0.5038167938931297	60.0	1.099236641221374	-72.0	-0.22891566265060243	1283.0	9.204819277108435	2066.0	0.4819277108433735	2007.0	-0.4090909090909091	450.0	-0.02181818181818182	-24.0	-0.23877551020408166	234.0	1.5228925964182813E12	1.52289259644E12	2101.5625	3328.0	0.0	0.0	
-0.9618320610687022	-28.0	0.42748091603053434	63.0	1.1755725190839694	-77.0	-0.24096385542168675	1281.0	9.228915662650603	2067.0	0.49397590361445787	2006.0	-0.4118181818181818	453.0	-0.011818181818181818	-13.0	-0.23163265306122452	227.0	1.5228925964221875E12	1.522892596441E12	2105.46875	3456.0	0.0	0.0	
-0.9618320610687022	-30.0	0.4580152671755725	63.0	1.2519083969465647	-82.0	-0.26506024096385544	1284.0	9.19277108433735	2069.0	0.5421686746987953	2002.0	-0.41454545454545455	456.0	-0.012727272727272728	-14.0	-0.23163265306122452	227.0	1.5228925964260938E12	1.522892596442E12	2109.375	3584.0	0.0	0.0	
-0.8396946564885496	-30.0	0.4580152671755725	55.0	1.3587786259541985	-89.0	-0.30120481927710846	1285.0	9.180722891566266	2072.0	0.5662650602409639	2000.0	-0.41	451.0	-0.02	-22.0	-0.23877551020408166	234.0	1.52289259643E12	1.522892596442E12	2113.28125	3712.0	0.0	0.0	
-0.732824427480916	-23.0	0.3511450381679389	48.0	1.3740458015267174	-90.0	-0.3373493975903615	1285.0	9.180722891566266	2075.0	0.5903614457831325	1998.0	-0.4081818181818182	449.0	-0.005454545454545455	-6.0	-0.23469387755102042	230.0	1.5228925964339063E12	1.522892596444E12	2117.1875	3840.0	0.0	0.0	
-0.6564885496183206	-31.0	0.47328244274809156	43.0	1.4961832061068703	-98.0	-0.3614457831325301	1284.0	9.19277108433735	2077.0	0.5903614457831325	1998.0	-0.4081818181818182	449.0	-0.005454545454545455	-6.0	-0.23469387755102042	230.0	1.5228925964378125E12	1.522892596447E12	2121.09375	3968.0	0.0	0.0	
-0.4580152671755725	-17.0	0.2595419847328244	30.0	1.8473282442748091	-121.0	-0.39759036144578314	1286.0	9.168674698795181	2080.0	0.6024096385542169	1997.0	-0.40454545454545454	445.0	-0.01090909090909091	-12.0	-0.2326530612244898	228.0	1.5228925964417188E12	1.522892596448E12	2125.0	4096.0	0.0	0.0	
-0.6259541984732824	-11.0	0.16793893129770993	41.0	1.618320610687023	-106.0	-0.3734939759036145	1284.0	9.19277108433735	2078.0	0.5903614457831325	1998.0	-0.4072727272727273	448.0	-0.014545454545454545	-16.0	-0.23469387755102042	230.0	1.522892596445625E12	1.522892596449E12	2128.90625	4224.0	0.0	0.0	
-0.15267175572519084	9.0	-0.13740458015267176	10.0	1.83206106870229	-120.0	-0.3493975903614458	1283.0	9.204819277108435	2076.0	0.5662650602409639	2000.0	-0.3990909090909091	439.0	0.0027272727272727275	3.0	-0.23367346938775513	229.0	1.5228925964495313E12	1.52289259646E12	2132.8125	4352.0	0.0	0.0	
-0.24427480916030533	0.0	0.0	16.0	1.7862595419847327	-117.0	-0.30120481927710846	1285.0	9.180722891566266	2072.0	0.5421686746987953	2002.0	-0.40545454545454546	446.0	-0.014545454545454545	-16.0	-0.23571428571428574	231.0	1.5228925964534375E12	1.522892596461E12	2136.71875	4480.0	0.0	0.0	
-0.21374045801526717	0.0	0.0	14.0	1.7862595419847327	-117.0	-0.3253012048192771	1284.0	9.19277108433735	2074.0	0.5301204819277109	2003.0	-0.4072727272727273	448.0	-0.019090909090909092	-21.0	-0.23979591836734696	235.0	1.5228925964573438E12	1.522892596462E12	2140.625	4608.0	0.0	0.0	
-0.38167938931297707	9.0	-0.13740458015267176	25.0	1.8625954198473282	-122.0	-0.3493975903614458	1285.0	9.180722891566266	2076.0	0.5421686746987953	2002.0	-0.4090909090909091	450.0	-0.012727272727272728	-14.0	-0.23775510204081635	233.0	1.52289259646125E12	1.522892596476E12	2144.53125	4736.0	0.0	0.0	
-0.15267175572519084	16.0	-0.24427480916030533	10.0	2.1526717557251906	-141.0	-0.3614457831325301	1286.0	9.168674698795181	2077.0	0.49397590361445787	2006.0	-0.4090909090909091	450.0	-0.012727272727272728	-14.0	-0.23775510204081635	233.0	1.5228925964651563E12	1.522892596476E12	2148.4375	4864.0	0.0	0.0	
-0.16793893129770993	10.0	-0.15267175572519084	11.0	2.0763358778625953	-136.0	-0.28915662650602414	1284.0	9.19277108433735	2071.0	0.4819277108433735	2007.0	-0.41545454545454547	457.0	-0.013636363636363636	-15.0	-0.23163265306122452	227.0	1.5228925964690625E12	1.522892596479E12	2152.34375	4992.0	0.0	0.0	
0.12213740458015267	7.0	-0.10687022900763359	-8.0	2.2748091603053435	-149.0	-0.20481927710843376	1284.0	9.19277108433735	2064.0	0.44578313253012053	2010.0	-0.4109090909090909	452.0	-0.01818181818181818	-20.0	-0.2295918367346939	225.0	1.5228925964729688E12	1.52289259649E12	2156.25	5120.0	0.0	0.0	
0.33587786259541985	21.0	-0.32061068702290074	-22.0	2.381679389312977	-156.0	-0.0963855421686747	1283.0	9.204819277108435	2055.0	0.39759036144578314	2014.0	-0.4081818181818182	449.0	-0.006363636363636364	-7.0	-0.2326530612244898	228.0	1.522892596476875E12	1.522892596491E12	2160.15625	5248.0	0.0	0.0	
0.1984732824427481	29.0	-0.4427480916030534	-13.0	2.16793893129771	-142.0	-0.03614457831325302	1284.0	9.19277108433735	2050.0	0.3614457831325301	2017.0	-0.4127272727272727	454.0	-0.013636363636363636	-15.0	-0.2306122448979592	226.0	1.5228925964807813E12	1.522892596491E12	2164.0625	5376.0	0.0	0.0	
0.21374045801526717	30.0	-0.4580152671755725	-14.0	2.1526717557251906	-141.0	-0.03614457831325302	1284.0	9.19277108433735	2050.0	0.3132530120481928	2021.0	-0.41454545454545455	456.0	-0.02090909090909091	-23.0	-0.23673469387755103	232.0	1.5228925964846875E12	1.522892596497E12	2167.96875	5504.0	0.0	0.0	
0.2748091603053435	23.0	-0.3511450381679389	-18.0	2.3664122137404577	-155.0	-0.04819277108433735	1283.0	9.204819277108435	2051.0	0.28915662650602414	2023.0	-0.4081818181818182	449.0	-0.008181818181818182	-9.0	-0.2306122448979592	226.0	1.5228925964885938E12	1.522892596497E12	2171.875	5632.0	0.0	0.0	
0.24427480916030533	11.0	-0.16793893129770993	-16.0	2.1221374045801524	-139.0	-0.07228915662650603	1285.0	9.180722891566266	2053.0	0.30120481927710846	2022.0	-0.4081818181818182	449.0	-0.008181818181818182	-9.0	-0.2306122448979592	226.0	1.5228925964925E12	1.522892596498E12	2175.78125	5760.0	0.0	0.0	
0.22900763358778625	10.0	-0.15267175572519084	-15.0	2.229007633587786	-146.0	-0.04819277108433735	1285.0	9.180722891566266	2051.0	0.27710843373493976	2024.0	-0.4036363636363636	444.0	-0.015454545454545455	-17.0	-0.2295918367346939	225.0	1.5228925964964063E12	1.522892596507E12	2179.6875	5888.0	0.0	0.0	
0.2595419847328244	18.0	-0.2748091603053435	-17.0	2.33587786259542	-153.0	-0.060240963855421686	1286.0	9.168674698795181	2052.0	0.27710843373493976	2024.0	-0.4127272727272727	454.0	-0.02090909090909091	-23.0	-0.23877551020408166	234.0	1.5228925965003125E12	1.522892596508E12	2183.59375	6016.0	0.0	0.0	
0.3053435114503817	14.0	-0.21374045801526717	-20.0	2.2748091603053435	-149.0	0.0	1284.0	9.19277108433735	2047.0	0.26506024096385544	2025.0	-0.4163636363636364	458.0	-0.011818181818181818	-13.0	-0.23469387755102042	230.0	1.5228925965042188E12	1.522892596509E12	2187.5	6144.0	0.0	0.0	
0.24427480916030533	4.0	-0.061068702290076333	-16.0	2.427480916030534	-159.0	0.08433734939759037	1284.0	9.19277108433735	2040.0	0.22891566265060243	2028.0	-0.40454545454545454	445.0	0.0018181818181818182	2.0	-0.2285714285714286	224.0	1.522892596508125E12	1.522892596524E12	2191.40625	6272.0	0.0	0.0	
0.2900763358778626	11.0	-0.16793893129770993	-19.0	2.259541984732824	-148.0	0.18072289156626506	1284.0	9.19277108433735	2032.0	0.18072289156626506	2032.0	-0.41545454545454547	457.0	-0.02181818181818182	-24.0	-0.23775510204081635	233.0	1.5228925965120313E12	1.522892596525E12	2195.3125	6400.0	0.0	0.0	
0.12213740458015267	-4.0	0.061068702290076333	-8.0	1.9389312977099236	-127.0	0.18072289156626506	1285.0	9.180722891566266	2032.0	0.1566265060240964	2034.0	-0.41545454545454547	457.0	-0.004545454545454545	-5.0	-0.23775510204081635	233.0	1.5228925965159375E12	1.522892596526E12	2199.21875	6528.0	0.0	0.0	
0.16793893129770993	-7.0	0.10687022900763359	-11.0	1.83206106870229	-120.0	0.13253012048192772	1285.0	9.180722891566266	2036.0	0.10843373493975904	2038.0	-0.4109090909090909	452.0	-0.004545454545454545	-5.0	-0.23367346938775513	229.0	1.5228925965198438E12	1.522892596533E12	2203.125	6656.0	0.0	0.0	
0.15267175572519084	-2.0	0.030534351145038167	-10.0	2.030534351145038	-133.0	0.10843373493975904	1283.0	9.204819277108435	2038.0	0.08433734939759037	2040.0	-0.4018181818181818	442.0	-0.019090909090909092	-21.0	-0.2326530612244898	228.0	1.52289259652375E12	1.522892596534E12	2207.03125	6784.0	0.0	0.0	
0.061068702290076333	-18.0	0.2748091603053435	-4.0	2.1068702290076335	-138.0	0.12048192771084337	1282.0	9.216867469879519	2037.0	0.10843373493975904	2038.0	-0.4127272727272727	454.0	-0.0036363636363636364	-4.0	-0.23367346938775513	229.0	1.5228925965276563E12	1.522892596535E12	2210.9375	6912.0	0.0	0.0	
0.13740458015267176	-18.0	0.2748091603053435	-9.0	2.1221374045801524	-139.0	0.0963855421686747	1285.0	9.180722891566266	2039.0	0.13253012048192772	2036.0	-0.4090909090909091	450.0	-0.006363636363636364	-7.0	-0.23469387755102042	230.0	1.5228925965315625E12	1.522892596542E12	2214.84375	7040.0	0.0	0.0	
0.2595419847328244	-16.0	0.24427480916030533	-17.0	1.984732824427481	-130.0	0.12048192771084337	1285.0	9.180722891566266	2037.0	0.13253012048192772	2036.0	-0.4163636363636364	458.0	-0.017272727272727273	-19.0	-0.23367346938775513	229.0	1.5228925965354688E12	1.522892596543E12	2218.75	7168.0	0.0	0.0	
0.16793893129770993	-15.0	0.22900763358778625	-11.0	2.229007633587786	-146.0	0.24096385542168675	1284.0	9.19277108433735	2027.0	0.12048192771084337	2037.0	-0.4109090909090909	452.0	-0.013636363636363636	-15.0	-0.23367346938775513	229.0	1.522892596539375E12	1.522892596544E12	2222.65625	7296.0	0.0	0.0	
0.2748091603053435	-26.0	0.3969465648854962	-18.0	2.0	-131.0	0.28915662650602414	1284.0	9.19277108433735	2023.0	0.07228915662650603	2041.0	-0.4109090909090909	452.0	-0.013636363636363636	-15.0	-0.23367346938775513	229.0	1.5228925965432813E12	1.522892596586E12	2226.5625	7424.0	0.0	0.0	
0.2748091603053435	-15.0	0.22900763358778625	-18.0	1.6946564885496183	-111.0	0.24096385542168675	1282.0	9.216867469879519	2027.0	0.060240963855421686	2042.0	-0.4109090909090909	452.0	-0.01	-11.0	-0.23673469387755103	232.0	1.5228925965471875E12	1.522892596587E12	2230.46875	7552.0	0.0	0.0	
0.12213740458015267	-48.0	0.732824427480916	-8.0	1.4809160305343512	-97.0	0.16867469879518074	1284.0	9.19277108433735	2033.0	0.060240963855421686	2042.0	-0.4109090909090909	452.0	-0.02090909090909091	-23.0	-0.23163265306122452	227.0	1.5228925965510938E12	1.522892596588E12	2234.375	7680.0	0.0	0.0	
0.04580152671755725	-37.0	0.564885496183206	-3.0	1.7557251908396947	-115.0	0.14457831325301207	1283.0	9.204819277108435	2035.0	0.04819277108433735	2043.0	-0.4118181818181818	453.0	-0.015454545454545455	-17.0	-0.2326530612244898	228.0	1.522892596555E12	1.522892596589E12	2238.28125	7808.0	0.0	0.0	
-0.15267175572519084	-43.0	0.6564885496183206	10.0	1.5419847328244274	-101.0	0.10843373493975904	1284.0	9.19277108433735	2038.0	0.0963855421686747	2039.0	-0.4081818181818182	449.0	-0.014545454545454545	-16.0	-0.23877551020408166	234.0	1.5228925965589063E12	1.522892596592E12	2242.1875	7936.0	0.0	0.0	
-0.24427480916030533	-42.0	0.6412213740458015	16.0	1.5419847328244274	-101.0	0.12048192771084337	1285.0	9.180722891566266	2037.0	0.13253012048192772	2036.0	-0.41363636363636364	455.0	-0.01818181818181818	-20.0	-0.23367346938775513	229.0	1.5228925965628125E12	1.522892596593E12	2246.09375	8064.0	0.0	0.0	
-0.061068702290076333	-51.0	0.7786259541984732	4.0	1.4961832061068703	-98.0	0.12048192771084337	1285.0	9.180722891566266	2037.0	0.1566265060240964	2034.0	-0.4109090909090909	452.0	-0.016363636363636365	-18.0	-0.23367346938775513	229.0	1.5228925965667188E12	1.522892596593E12	2250.0	8192.0	0.0	0.0	
0.030534351145038167	-60.0	0.916030534351145	-2.0	1.618320610687023	-106.0	0.13253012048192772	1284.0	9.19277108433735	2036.0	0.18072289156626506	2032.0	-0.4109090909090909	452.0	-0.016363636363636365	-18.0	-0.23367346938775513	229.0	1.522892596570625E12	1.522892596594E12	2253.90625	8320.0	0.0	0.0	
0.015267175572519083	-43.0	0.6564885496183206	-1.0	1.6793893129770991	-110.0	0.12048192771084337	1284.0	9.19277108433735	2037.0	0.16867469879518074	2033.0	-0.41	451.0	-0.014545454545454545	-16.0	-0.23673469387755103	232.0	1.5228925965745313E12	1.522892596595E12	2257.8125	8448.0	0.0	0.0	
0.015267175572519083	-50.0	0.7633587786259541	-1.0	1.6335877862595418	-107.0	0.12048192771084337	1283.0	9.204819277108435	2037.0	0.16867469879518074	2033.0	-0.4163636363636364	458.0	-0.02181818181818182	-24.0	-0.23163265306122452	227.0	1.5228925965784375E12	1.522892596596E12	2261.71875	8576.0	0.0	0.0	
-0.07633587786259542	-45.0	0.6870229007633587	5.0	1.5725190839694656	-103.0	0.10843373493975904	1284.0	9.19277108433735	2038.0	0.16867469879518074	2033.0	-0.4072727272727273	448.0	-0.014545454545454545	-16.0	-0.23571428571428574	231.0	1.5228925965823438E12	1.522892596596E12	2265.625	8704.0	0.0	0.0	
-0.15267175572519084	-60.0	0.916030534351145	10.0	1.4045801526717556	-92.0	0.060240963855421686	1284.0	9.19277108433735	2042.0	0.16867469879518074	2033.0	-0.41	451.0	-0.012727272727272728	-14.0	-0.23469387755102042	230.0	1.52289259658625E12	1.522892596598E12	2269.53125	8832.0	0.0	0.0	
-0.15267175572519084	-48.0	0.732824427480916	10.0	1.4351145038167938	-94.0	0.024096385542168676	1284.0	9.19277108433735	2045.0	0.20481927710843376	2030.0	-0.4172727272727273	459.0	-0.023636363636363636	-26.0	-0.2326530612244898	228.0	1.5228925965901563E12	1.522892596599E12	2273.4375	8960.0	0.0	0.0	
-0.32061068702290074	-34.0	0.5190839694656488	21.0	1.3740458015267174	-90.0	0.0	1284.0	9.19277108433735	2047.0	0.24096385542168675	2027.0	-0.4090909090909091	450.0	-0.015454545454545455	-17.0	-0.2326530612244898	228.0	1.5228925965940625E12	1.522892596607E12	2277.34375	9088.0	0.0	0.0	
0.07633587786259542	-42.0	0.6412213740458015	-5.0	1.4809160305343512	-97.0	-0.024096385542168676	1285.0	9.180722891566266	2049.0	0.27710843373493976	2024.0	-0.4090909090909091	450.0	-0.015454545454545455	-17.0	-0.2326530612244898	228.0	1.5228925965979688E12	1.522892596607E12	2281.25	9216.0	0.0	0.0	
-0.061068702290076333	-47.0	0.7175572519083969	4.0	1.3893129770992365	-91.0	-0.060240963855421686	1286.0	9.168674698795181	2052.0	0.26506024096385544	2025.0	-0.4090909090909091	450.0	-0.008181818181818182	-9.0	-0.2306122448979592	226.0	1.522892596601875E12	1.522892596608E12	2285.15625	9344.0	0.0	0.0	
-0.030534351145038167	-33.0	0.5038167938931297	2.0	1.7404580152671756	-114.0	-0.0963855421686747	1286.0	9.168674698795181	2055.0	0.27710843373493976	2024.0	-0.4027272727272727	443.0	0.015454545454545455	17.0	-0.22551020408163266	221.0	1.5228925966057813E12	1.522892596617E12	2289.0625	9472.0	0.0	0.0	
0.12213740458015267	-23.0	0.3511450381679389	-8.0	1.5877862595419847	-104.0	-0.12048192771084337	1284.0	9.19277108433735	2057.0	0.22891566265060243	2028.0	-0.4090909090909091	450.0	-0.02090909090909091	-23.0	-0.23367346938775513	229.0	1.5228925966096875E12	1.522892596618E12	2292.96875	9600.0	0.0	0.0	
0.21374045801526717	-8.0	0.12213740458015267	-14.0	1.7251908396946565	-113.0	-0.07228915662650603	1284.0	9.19277108433735	2053.0	0.24096385542168675	2027.0	-0.4027272727272727	443.0	-0.005454545454545455	-6.0	-0.2295918367346939	225.0	1.5228925966135938E12	1.522892596619E12	2296.875	9728.0	0.0	0.0	
0.12213740458015267	-23.0	0.3511450381679389	-8.0	1.8015267175572518	-118.0	-0.012048192771084338	1284.0	9.19277108433735	2048.0	0.22891566265060243	2028.0	-0.41363636363636364	455.0	-0.019090909090909092	-21.0	-0.2326530612244898	228.0	1.5228925966175E12	1.522892596635E12	2300.78125	9856.0	0.0	0.0	
-0.015267175572519083	-28.0	0.42748091603053434	1.0	1.648854961832061	-108.0	0.012048192771084338	1285.0	9.180722891566266	2046.0	0.2530120481927711	2026.0	-0.41	451.0	-0.017272727272727273	-19.0	-0.23163265306122452	227.0	1.5228925966214063E12	1.522892596636E12	2304.6875	9984.0	0.0	0.0	
-0.21374045801526717	-11.0	0.16793893129770993	14.0	1.7099236641221374	-112.0	0.0	1283.0	9.204819277108435	2047.0	0.28915662650602414	2023.0	-0.41	451.0	-0.017272727272727273	-19.0	-0.23163265306122452	227.0	1.5228925966253125E12	1.522892596636E12	2308.59375	10112.0	0.0	0.0	
0.015267175572519083	-26.0	0.3969465648854962	-1.0	1.450381679389313	-95.0	-0.024096385542168676	1284.0	9.19277108433735	2049.0	0.28915662650602414	2023.0	-0.4127272727272727	454.0	-0.004545454545454545	-5.0	-0.23367346938775513	229.0	1.5228925966292188E12	1.522892596638E12	2312.5	10240.0	0.0	0.0	
0.13740458015267176	-44.0	0.6717557251908397	-9.0	1.5877862595419847	-104.0	-0.07228915662650603	1284.0	9.19277108433735	2053.0	0.26506024096385544	2025.0	-0.4163636363636364	458.0	-0.02181818181818182	-24.0	-0.2306122448979592	226.0	1.522892596633125E12	1.522892596639E12	2316.40625	10368.0	0.0	0.0	
0.1984732824427481	-19.0	0.2900763358778626	-13.0	1.618320610687023	-106.0	-0.07228915662650603	1284.0	9.19277108433735	2053.0	0.21686746987951808	2029.0	-0.4090909090909091	450.0	-0.01	-11.0	-0.23469387755102042	230.0	1.5228925966370313E12	1.52289259664E12	2320.3125	10496.0	0.0	0.0	
0.1984732824427481	-11.0	0.16793893129770993	-13.0	1.6793893129770991	-110.0	-0.03614457831325302	1283.0	9.204819277108435	2050.0	0.20481927710843376	2030.0	-0.41	451.0	-0.007272727272727273	-8.0	-0.2326530612244898	228.0	1.5228925966409375E12	1.522892596654E12	2324.21875	10624.0	0.0	0.0	
0.2900763358778626	-2.0	0.030534351145038167	-19.0	1.6793893129770991	-110.0	0.012048192771084338	1285.0	9.180722891566266	2046.0	0.1566265060240964	2034.0	-0.41545454545454547	457.0	-0.02181818181818182	-24.0	-0.2295918367346939	225.0	1.5228925966448438E12	1.522892596655E12	2328.125	10752.0	0.0	0.0	
0.16793893129770993	-8.0	0.12213740458015267	-11.0	1.984732824427481	-130.0	0.03614457831325302	1285.0	9.180722891566266	2044.0	0.14457831325301207	2035.0	-0.41545454545454547	457.0	-0.015454545454545455	-17.0	-0.23163265306122452	227.0	1.52289259664875E12	1.522892596656E12	2332.03125	10880.0	0.0	0.0	
0.24427480916030533	-18.0	0.2748091603053435	-16.0	1.5572519083969465	-102.0	0.024096385542168676	1284.0	9.19277108433735	2045.0	0.1566265060240964	2034.0	-0.40636363636363637	447.0	-0.015454545454545455	-17.0	-0.23163265306122452	227.0	1.5228925966526563E12	1.522892596667E12	2335.9375	11008.0	0.0	0.0	
0.2595419847328244	-18.0	0.2748091603053435	-17.0	1.6946564885496183	-111.0	0.024096385542168676	1283.0	9.204819277108435	2045.0	0.16867469879518074	2033.0	-0.41363636363636364	455.0	-0.006363636363636364	-7.0	-0.2326530612244898	228.0	1.5228925966565625E12	1.522892596668E12	2339.84375	11136.0	0.0	0.0	
0.1984732824427481	-15.0	0.22900763358778625	-13.0	1.5572519083969465	-102.0	0.0	1284.0	9.19277108433735	2047.0	0.18072289156626506	2032.0	-0.4127272727272727	454.0	-0.023636363636363636	-26.0	-0.23469387755102042	230.0	1.5228925966604688E12	1.522892596669E12	2343.75	11264.0	0.0	0.0	
0.15267175572519084	-16.0	0.24427480916030533	-10.0	1.6793893129770991	-110.0	-0.04819277108433735	1284.0	9.19277108433735	2051.0	0.18072289156626506	2032.0	-0.40636363636363637	447.0	-0.02	-22.0	-0.23469387755102042	230.0	1.522892596664375E12	1.522892596681E12	2347.65625	11392.0	0.0	0.0	
0.21374045801526717	-14.0	0.21374045801526717	-14.0	1.7557251908396947	-115.0	-0.04819277108433735	1283.0	9.204819277108435	2051.0	0.18072289156626506	2032.0	-0.4036363636363636	444.0	-0.0027272727272727275	-3.0	-0.22755102040816327	223.0	1.5228925966682813E12	1.522892596682E12	2351.5625	11520.0	0.0	0.0	
0.15267175572519084	-10.0	0.15267175572519084	-10.0	1.9236641221374045	-126.0	-0.060240963855421686	1283.0	9.204819277108435	2052.0	0.1566265060240964	2034.0	-0.4163636363636364	458.0	-0.02090909090909091	-23.0	-0.23163265306122452	227.0	1.5228925966721875E12	1.522892596687E12	2355.46875	11648.0	0.0	0.0	
0.183206106870229	-4.0	0.061068702290076333	-12.0	1.8931297709923662	-124.0	-0.0963855421686747	1284.0	9.19277108433735	2055.0	0.13253012048192772	2036.0	-0.4163636363636364	458.0	-0.02090909090909091	-23.0	-0.23163265306122452	227.0	1.5228925966760938E12	1.522892596694E12	2359.375	11776.0	0.0	0.0	
0.07633587786259542	-14.0	0.21374045801526717	-5.0	1.8625954198473282	-122.0	-0.10843373493975904	1283.0	9.204819277108435	2056.0	0.1566265060240964	2034.0	-0.4081818181818182	449.0	-0.023636363636363636	-26.0	-0.23673469387755103	232.0	1.52289259668E12	1.522892596695E12	2363.28125	11904.0	0.0	0.0	
0.04580152671755725	-15.0	0.22900763358778625	-3.0	1.7709923664122136	-116.0	-0.13253012048192772	1284.0	9.19277108433735	2058.0	0.16867469879518074	2033.0	-0.4118181818181818	453.0	-0.01090909090909091	-12.0	-0.2306122448979592	226.0	1.5228925966839063E12	1.522892596697E12	2367.1875	12032.0	0.0	0.0	
0.0916030534351145	1.0	-0.015267175572519083	-6.0	1.8625954198473282	-122.0	-0.14457831325301207	1283.0	9.204819277108435	2059.0	0.16867469879518074	2033.0	-0.41363636363636364	455.0	-0.0036363636363636364	-4.0	-0.22653061224489798	222.0	1.5228925966878125E12	1.522892596701E12	2371.09375	12160.0	0.0	0.0	
0.015267175572519083	-5.0	0.07633587786259542	-1.0	1.83206106870229	-120.0	-0.16867469879518074	1283.0	9.204819277108435	2061.0	0.22891566265060243	2028.0	-0.4090909090909091	450.0	-0.01818181818181818	-20.0	-0.23163265306122452	227.0	1.5228925966917188E12	1.522892596702E12	2375.0	12288.0	0.0	0.0	
0.030534351145038167	-5.0	0.07633587786259542	-2.0	1.9694656488549618	-129.0	-0.20481927710843376	1284.0	9.19277108433735	2064.0	0.22891566265060243	2028.0	-0.4127272727272727	454.0	-0.012727272727272728	-14.0	-0.2295918367346939	225.0	1.522892596695625E12	1.522892596702E12	2378.90625	12416.0	0.0	0.0	
0.21374045801526717	-11.0	0.16793893129770993	-14.0	2.1068702290076335	-138.0	-0.22891566265060243	1285.0	9.180722891566266	2066.0	0.2530120481927711	2026.0	-0.4127272727272727	454.0	-0.004545454545454545	-5.0	-0.22448979591836737	220.0	1.5228925966995313E12	1.522892596721E12	2382.8125	12544.0	0.0	0.0	
0.1984732824427481	4.0	-0.061068702290076333	-13.0	2.0763358778625953	-136.0	-0.24096385542168675	1286.0	9.168674698795181	2067.0	0.2530120481927711	2026.0	-0.4127272727272727	454.0	-0.004545454545454545	-5.0	-0.22448979591836737	220.0	1.5228925967034375E12	1.522892596722E12	2386.71875	12672.0	0.0	0.0	
0.061068702290076333	22.0	-0.33587786259541985	-4.0	2.213740458015267	-145.0	-0.20481927710843376	1285.0	9.180722891566266	2064.0	0.24096385542168675	2027.0	-0.4081818181818182	449.0	-0.02	-22.0	-0.2326530612244898	228.0	1.5228925967073438E12	1.522892596723E12	2390.625	12800.0	0.0	0.0	
0.2595419847328244	28.0	-0.42748091603053434	-17.0	2.33587786259542	-153.0	-0.07228915662650603	1286.0	9.168674698795181	2053.0	0.24096385542168675	2027.0	-0.4163636363636364	458.0	-0.011818181818181818	-13.0	-0.23163265306122452	227.0	1.52289259671125E12	1.522892596745E12	2394.53125	12928.0	0.0	0.0	
