left thigh	left thigh	left thigh	left thigh	left thigh	left thigh	left thigh	left thigh	left thigh	left thigh	left thigh	left thigh	left thigh	left thigh	left thigh	left thigh	left thigh	left thigh	left thigh	left thigh	left thigh	left thigh	Annotation	Annotation	
Gyroscope X	Gyroscope X	Gyroscope Y	Gyroscope Y	Gyroscope Z	Gyroscope Z	Low Noise Accelerometer X	Low Noise Accelerometer X	Low Noise Accelerometer Y	Low Noise Accelerometer Y	Low Noise Accelerometer Z	Low Noise Accelerometer Z	Magnetometer X	Magnetometer X	Magnetometer Y	Magnetometer Y	Magnetometer Z	Magnetometer Z	SyncTimestamp	SystemTimestamp	Timestamp	Timestamp	Level	Pulse	
CAL	RAW	CAL	RAW	CAL	RAW	CAL	RAW	CAL	RAW	CAL	RAW	CAL	RAW	CAL	RAW	CAL	RAW	CAL	UNCAL	CAL	RAW	no format	no format	
deg/s	No Units	deg/s	No Units	deg/s	No Units	m/s^2	No Units	m/s^2	No Units	m/s^2	No Units	local flux	No Units	local flux	No Units	local flux	No Units	mSecs	mSecs	mSecs	No Units	no unit	no unit	
-0.9007633587786259	-33.0	0.5038167938931297	59.0	1.7251908396946565	-113.0	0.14457831325301207	1284.0	9.19277108433735	2035.0	0.10843373493975904	2038.0	-0.4163636363636364	458.0	-0.024545454545454544	-27.0	-0.22755102040816327	223.0	1.5228926156377188E12	1.522892615644E12	1320.3125	43264.0	0.0	0.0	
-0.8549618320610687	-36.0	0.549618320610687	56.0	1.5725190839694656	-103.0	0.1566265060240964	1284.0	9.19277108433735	2034.0	0.12048192771084337	2037.0	-0.41818181818181815	460.0	-0.012727272727272728	-14.0	-0.2285714285714286	224.0	1.522892615641625E12	1.522892615651E12	1324.21875	43392.0	0.0	0.0	
-0.8396946564885496	-44.0	0.6717557251908397	55.0	1.6946564885496183	-111.0	0.13253012048192772	1283.0	9.204819277108435	2036.0	0.13253012048192772	2036.0	-0.41818181818181815	460.0	-0.012727272727272728	-14.0	-0.2285714285714286	224.0	1.5228926156455313E12	1.522892615652E12	1328.125	43520.0	0.0	0.0	
-0.732824427480916	-31.0	0.47328244274809156	48.0	1.5725190839694656	-103.0	0.13253012048192772	1286.0	9.168674698795181	2036.0	0.10843373493975904	2038.0	-0.41909090909090907	461.0	-0.026363636363636363	-29.0	-0.22551020408163266	221.0	1.5228926156494375E12	1.522892615652E12	1332.03125	43648.0	0.0	0.0	
-0.8091603053435115	-34.0	0.5190839694656488	53.0	1.7404580152671756	-114.0	0.16867469879518074	1286.0	9.168674698795181	2033.0	0.12048192771084337	2037.0	-0.4163636363636364	458.0	-0.019090909090909092	-21.0	-0.2285714285714286	224.0	1.5228926156533438E12	1.522892615665E12	1335.9375	43776.0	0.0	0.0	
-0.9770992366412213	-27.0	0.41221374045801523	64.0	1.5877862595419847	-104.0	0.22891566265060243	1284.0	9.19277108433735	2028.0	0.0963855421686747	2039.0	-0.4172727272727273	459.0	-0.01	-11.0	-0.22551020408163266	221.0	1.52289261565725E12	1.522892615665E12	1339.84375	43904.0	0.0	0.0	
-1.0076335877862594	-41.0	0.6259541984732824	66.0	1.450381679389313	-95.0	0.22891566265060243	1283.0	9.204819277108435	2028.0	0.0963855421686747	2039.0	-0.42	462.0	-0.026363636363636363	-29.0	-0.22755102040816327	223.0	1.5228926156611563E12	1.522892615665E12	1343.75	44032.0	0.0	0.0	
-0.6717557251908397	-30.0	0.4580152671755725	44.0	1.2671755725190839	-83.0	0.21686746987951808	1283.0	9.204819277108435	2029.0	0.0963855421686747	2039.0	-0.4172727272727273	459.0	-0.015454545454545455	-17.0	-0.22653061224489798	222.0	1.5228926156650625E12	1.52289261568E12	1347.65625	44160.0	0.0	0.0	
-0.7480916030534351	-25.0	0.38167938931297707	49.0	1.4351145038167938	-94.0	0.21686746987951808	1286.0	9.168674698795181	2029.0	0.07228915662650603	2041.0	-0.41818181818181815	460.0	-0.01	-11.0	-0.2285714285714286	224.0	1.5228926156689688E12	1.52289261568E12	1351.5625	44288.0	0.0	0.0	
-0.9770992366412213	-28.0	0.42748091603053434	64.0	1.4198473282442747	-93.0	0.21686746987951808	1283.0	9.204819277108435	2029.0	0.060240963855421686	2042.0	-0.41818181818181815	460.0	-0.01	-11.0	-0.2285714285714286	224.0	1.522892615672875E12	1.52289261568E12	1355.46875	44416.0	0.0	0.0	
-0.5801526717557252	-52.0	0.7938931297709924	38.0	1.3129770992366412	-86.0	0.21686746987951808	1283.0	9.204819277108435	2029.0	0.04819277108433735	2043.0	-0.4209090909090909	463.0	-0.02727272727272727	-30.0	-0.2285714285714286	224.0	1.5228926156767813E12	1.522892615691E12	1359.375	44544.0	0.0	0.0	
-0.7175572519083969	-52.0	0.7938931297709924	47.0	1.5267175572519083	-100.0	0.20481927710843376	1283.0	9.204819277108435	2030.0	0.03614457831325302	2044.0	-0.4127272727272727	454.0	-0.02090909090909091	-23.0	-0.2306122448979592	226.0	1.5228926156806875E12	1.522892615691E12	1363.28125	44672.0	0.0	0.0	
-0.6106870229007634	-65.0	0.9923664122137404	40.0	1.5114503816793892	-99.0	0.20481927710843376	1285.0	9.180722891566266	2030.0	0.03614457831325302	2044.0	-0.41909090909090907	461.0	-0.011818181818181818	-13.0	-0.22653061224489798	222.0	1.5228926156845938E12	1.522892615691E12	1367.1875	44800.0	0.0	0.0	
-0.9465648854961831	-51.0	0.7786259541984732	62.0	1.5877862595419847	-104.0	0.1927710843373494	1283.0	9.204819277108435	2031.0	0.03614457831325302	2044.0	-0.41818181818181815	460.0	-0.024545454545454544	-27.0	-0.2306122448979592	226.0	1.5228926156885E12	1.522892615698E12	1371.09375	44928.0	0.0	0.0	
-1.099236641221374	-56.0	0.8549618320610687	72.0	1.6030534351145038	-105.0	0.20481927710843376	1284.0	9.19277108433735	2030.0	0.060240963855421686	2042.0	-0.4172727272727273	459.0	-0.01818181818181818	-20.0	-0.23571428571428574	231.0	1.5228926156924063E12	1.522892615699E12	1375.0	45056.0	0.0	0.0	
-0.9618320610687022	-51.0	0.7786259541984732	63.0	1.3129770992366412	-86.0	0.22891566265060243	1283.0	9.204819277108435	2028.0	0.08433734939759037	2040.0	-0.41818181818181815	460.0	-0.012727272727272728	-14.0	-0.22755102040816327	223.0	1.5228926156963125E12	1.5228926157E12	1378.90625	45184.0	0.0	0.0	
-0.8396946564885496	-40.0	0.6106870229007634	55.0	1.083969465648855	-71.0	0.21686746987951808	1284.0	9.19277108433735	2029.0	0.10843373493975904	2038.0	-0.41818181818181815	460.0	-0.012727272727272728	-14.0	-0.22755102040816327	223.0	1.5228926157002188E12	1.52289261574E12	1382.8125	45312.0	0.0	0.0	
-1.0687022900763359	-53.0	0.8091603053435115	70.0	1.1908396946564885	-78.0	0.1566265060240964	1283.0	9.204819277108435	2034.0	0.12048192771084337	2037.0	-0.42	462.0	-0.01818181818181818	-20.0	-0.2285714285714286	224.0	1.522892615704125E12	1.522892615741E12	1386.71875	45440.0	0.0	0.0	
-0.6717557251908397	-46.0	0.7022900763358778	44.0	1.2061068702290076	-79.0	0.10843373493975904	1284.0	9.19277108433735	2038.0	0.14457831325301207	2035.0	-0.41454545454545455	456.0	-0.02181818181818182	-24.0	-0.2326530612244898	228.0	1.5228926157080313E12	1.522892615741E12	1390.625	45568.0	0.0	0.0	
-0.9007633587786259	-59.0	0.9007633587786259	59.0	1.282442748091603	-84.0	0.08433734939759037	1284.0	9.19277108433735	2040.0	0.1566265060240964	2034.0	-0.42272727272727273	465.0	-0.019090909090909092	-21.0	-0.22346938775510206	219.0	1.5228926157119375E12	1.522892615743E12	1394.53125	45696.0	0.0	0.0	
-0.916030534351145	-42.0	0.6412213740458015	60.0	1.2519083969465647	-82.0	0.060240963855421686	1284.0	9.19277108433735	2042.0	0.16867469879518074	2033.0	-0.42	462.0	-0.02727272727272727	-30.0	-0.2295918367346939	225.0	1.5228926157158438E12	1.522892615744E12	1398.4375	45824.0	0.0	0.0	
-0.8549618320610687	-50.0	0.7633587786259541	56.0	1.3435114503816794	-88.0	0.060240963855421686	1285.0	9.180722891566266	2042.0	0.1927710843373494	2031.0	-0.41545454545454547	457.0	-0.02909090909090909	-32.0	-0.2326530612244898	228.0	1.52289261571975E12	1.522892615744E12	1402.34375	45952.0	0.0	0.0	
-0.7938931297709924	-50.0	0.7633587786259541	52.0	1.5267175572519083	-100.0	0.03614457831325302	1284.0	9.19277108433735	2044.0	0.21686746987951808	2029.0	-0.4218181818181818	464.0	-0.017272727272727273	-19.0	-0.22346938775510206	219.0	1.5228926157236563E12	1.522892615746E12	1406.25	46080.0	0.0	0.0	
-0.7633587786259541	-58.0	0.8854961832061068	50.0	1.282442748091603	-84.0	0.03614457831325302	1284.0	9.19277108433735	2044.0	0.24096385542168675	2027.0	-0.4218181818181818	464.0	-0.017272727272727273	-19.0	-0.22346938775510206	219.0	1.5228926157275625E12	1.522892615746E12	1410.15625	46208.0	0.0	0.0	
-1.0687022900763359	-38.0	0.5801526717557252	70.0	1.618320610687023	-106.0	0.03614457831325302	1285.0	9.180722891566266	2044.0	0.26506024096385544	2025.0	-0.41454545454545455	456.0	-0.023636363636363636	-26.0	-0.2326530612244898	228.0	1.5228926157314688E12	1.522892615747E12	1414.0625	46336.0	0.0	0.0	
-0.9312977099236641	-37.0	0.564885496183206	61.0	1.3587786259541985	-89.0	-0.012048192771084338	1285.0	9.180722891566266	2048.0	0.3132530120481928	2021.0	-0.4109090909090909	452.0	-0.004545454545454545	-5.0	-0.22448979591836737	220.0	1.522892615735375E12	1.522892615748E12	1417.96875	46464.0	0.0	0.0	
-0.7480916030534351	-36.0	0.549618320610687	49.0	1.282442748091603	-84.0	-0.03614457831325302	1285.0	9.180722891566266	2050.0	0.3493975903614458	2018.0	-0.42	462.0	-0.017272727272727273	-19.0	-0.22346938775510206	219.0	1.5228926157392813E12	1.522892615748E12	1421.875	46592.0	0.0	0.0	
-0.7480916030534351	-18.0	0.2748091603053435	49.0	1.648854961832061	-108.0	-0.024096385542168676	1286.0	9.168674698795181	2049.0	0.3132530120481928	2021.0	-0.41545454545454547	457.0	-0.024545454545454544	-27.0	-0.2326530612244898	228.0	1.5228926157431875E12	1.522892615751E12	1425.78125	46720.0	0.0	0.0	
-0.6870229007633587	-14.0	0.21374045801526717	45.0	1.4045801526717556	-92.0	0.03614457831325302	1285.0	9.180722891566266	2044.0	0.3253012048192771	2020.0	-0.41545454545454547	457.0	-0.011818181818181818	-13.0	-0.22755102040816327	223.0	1.5228926157470938E12	1.522892615759E12	1429.6875	46848.0	0.0	0.0	
-0.41221374045801523	7.0	-0.10687022900763359	27.0	1.6793893129770991	-110.0	0.16867469879518074	1285.0	9.180722891566266	2033.0	0.30120481927710846	2022.0	-0.41545454545454547	457.0	-0.015454545454545455	-17.0	-0.22755102040816327	223.0	1.522892615751E12	1.52289261576E12	1433.59375	46976.0	0.0	0.0	
-0.5801526717557252	-10.0	0.15267175572519084	38.0	1.6946564885496183	-111.0	0.21686746987951808	1284.0	9.19277108433735	2029.0	0.2530120481927711	2026.0	-0.4209090909090909	463.0	-0.015454545454545455	-17.0	-0.22448979591836737	220.0	1.5228926157549063E12	1.52289261576E12	1437.5	47104.0	0.0	0.0	
-0.5801526717557252	5.0	-0.07633587786259542	38.0	1.7862595419847327	-117.0	0.21686746987951808	1284.0	9.19277108433735	2029.0	0.21686746987951808	2029.0	-0.41454545454545455	456.0	-0.007272727272727273	-8.0	-0.22244897959183677	218.0	1.5228926157588125E12	1.522892615771E12	1441.40625	47232.0	0.0	0.0	
-0.2595419847328244	-20.0	0.3053435114503817	17.0	1.3893129770992365	-91.0	0.18072289156626506	1282.0	9.216867469879519	2032.0	0.20481927710843376	2030.0	-0.41909090909090907	461.0	-0.01818181818181818	-20.0	-0.23163265306122452	227.0	1.5228926157627188E12	1.522892615772E12	1445.3125	47360.0	0.0	0.0	
-0.3969465648854962	-28.0	0.42748091603053434	26.0	1.4809160305343512	-97.0	0.16867469879518074	1282.0	9.216867469879519	2033.0	0.18072289156626506	2032.0	-0.42272727272727273	465.0	-0.014545454545454545	-16.0	-0.22755102040816327	223.0	1.522892615766625E12	1.522892615773E12	1449.21875	47488.0	0.0	0.0	
-0.4427480916030534	-27.0	0.41221374045801523	29.0	1.5877862595419847	-104.0	0.16867469879518074	1284.0	9.19277108433735	2033.0	0.16867469879518074	2033.0	-0.4163636363636364	458.0	-0.024545454545454544	-27.0	-0.2326530612244898	228.0	1.5228926157705313E12	1.522892615781E12	1453.125	47616.0	0.0	0.0	
-0.38167938931297707	-16.0	0.24427480916030533	25.0	1.5572519083969465	-102.0	0.22891566265060243	1284.0	9.19277108433735	2028.0	0.16867469879518074	2033.0	-0.41545454545454547	457.0	-0.017272727272727273	-19.0	-0.23163265306122452	227.0	1.5228926157744375E12	1.522892615782E12	1457.03125	47744.0	0.0	0.0	
-0.32061068702290074	-15.0	0.22900763358778625	21.0	1.5267175572519083	-100.0	0.27710843373493976	1286.0	9.168674698795181	2024.0	0.14457831325301207	2035.0	-0.41545454545454547	457.0	-0.017272727272727273	-19.0	-0.23163265306122452	227.0	1.5228926157783438E12	1.522892615783E12	1460.9375	47872.0	0.0	0.0	
-0.41221374045801523	-12.0	0.183206106870229	27.0	1.618320610687023	-106.0	0.3132530120481928	1284.0	9.19277108433735	2021.0	0.0963855421686747	2039.0	-0.4209090909090909	463.0	-0.016363636363636365	-18.0	-0.22551020408163266	221.0	1.52289261578225E12	1.522892615793E12	1464.84375	48000.0	0.0	0.0	
-0.030534351145038167	-18.0	0.2748091603053435	2.0	1.5114503816793892	-99.0	0.3132530120481928	1285.0	9.180722891566266	2021.0	0.03614457831325302	2044.0	-0.41909090909090907	461.0	-0.013636363636363636	-15.0	-0.22244897959183677	218.0	1.5228926157861563E12	1.522892615794E12	1468.75	48128.0	0.0	0.0	
-0.42748091603053434	-23.0	0.3511450381679389	28.0	1.129770992366412	-74.0	0.28915662650602414	1283.0	9.204819277108435	2023.0	0.0	2047.0	-0.41545454545454547	457.0	-0.017272727272727273	-19.0	-0.2306122448979592	226.0	1.5228926157900625E12	1.522892615795E12	1472.65625	48256.0	0.0	0.0	
-0.48854961832061067	-17.0	0.2595419847328244	32.0	0.9465648854961831	-62.0	0.26506024096385544	1286.0	9.168674698795181	2025.0	0.0	2047.0	-0.41818181818181815	460.0	-0.016363636363636365	-18.0	-0.22551020408163266	221.0	1.5228926157939688E12	1.522892615811E12	1476.5625	48384.0	0.0	0.0	
-0.32061068702290074	-27.0	0.41221374045801523	21.0	1.0687022900763359	-70.0	0.18072289156626506	1285.0	9.180722891566266	2032.0	-0.03614457831325302	2050.0	-0.41909090909090907	461.0	-0.017272727272727273	-19.0	-0.22448979591836737	220.0	1.522892615797875E12	1.522892615812E12	1480.46875	48512.0	0.0	0.0	
-0.6106870229007634	-27.0	0.41221374045801523	40.0	1.1908396946564885	-78.0	0.14457831325301207	1284.0	9.19277108433735	2035.0	0.0	2047.0	-0.41454545454545455	456.0	-0.015454545454545455	-17.0	-0.23163265306122452	227.0	1.5228926158017813E12	1.522892615813E12	1484.375	48640.0	0.0	0.0	
-0.4427480916030534	-28.0	0.42748091603053434	29.0	1.0687022900763359	-70.0	0.14457831325301207	1284.0	9.19277108433735	2035.0	0.04819277108433735	2043.0	-0.41454545454545455	456.0	-0.015454545454545455	-17.0	-0.23163265306122452	227.0	1.5228926158056875E12	1.522892615814E12	1488.28125	48768.0	0.0	0.0	
-0.564885496183206	-26.0	0.3969465648854962	37.0	1.3587786259541985	-89.0	0.14457831325301207	1285.0	9.180722891566266	2035.0	0.04819277108433735	2043.0	-0.41363636363636364	455.0	0.0018181818181818182	2.0	-0.22551020408163266	221.0	1.5228926158095938E12	1.522892615821E12	1492.1875	48896.0	0.0	0.0	
-0.3969465648854962	-52.0	0.7938931297709924	26.0	1.1603053435114503	-76.0	0.16867469879518074	1285.0	9.180722891566266	2033.0	0.060240963855421686	2042.0	-0.41454545454545455	456.0	-0.00909090909090909	-10.0	-0.2295918367346939	225.0	1.5228926158135E12	1.522892615822E12	1496.09375	49024.0	0.0	0.0	
-0.3511450381679389	-46.0	0.7022900763358778	23.0	1.3282442748091603	-87.0	0.14457831325301207	1284.0	9.19277108433735	2035.0	0.03614457831325302	2044.0	-0.41454545454545455	456.0	-0.015454545454545455	-17.0	-0.2306122448979592	226.0	1.5228926158174063E12	1.522892615825E12	1500.0	49152.0	0.0	0.0	
-0.6564885496183206	-49.0	0.7480916030534351	43.0	1.2519083969465647	-82.0	0.14457831325301207	1286.0	9.168674698795181	2035.0	0.012048192771084338	2046.0	-0.4209090909090909	463.0	-0.02	-22.0	-0.22551020408163266	221.0	1.5228926158213125E12	1.522892615831E12	1503.90625	49280.0	0.0	0.0	
-0.7480916030534351	-46.0	0.7022900763358778	49.0	1.1603053435114503	-76.0	0.18072289156626506	1287.0	9.156626506024097	2032.0	0.024096385542168676	2045.0	-0.41909090909090907	461.0	-0.008181818181818182	-9.0	-0.22551020408163266	221.0	1.5228926158252188E12	1.522892615832E12	1507.8125	49408.0	0.0	0.0	
-0.42748091603053434	-42.0	0.6412213740458015	28.0	1.297709923664122	-85.0	0.21686746987951808	1286.0	9.168674698795181	2029.0	0.012048192771084338	2046.0	-0.41454545454545455	456.0	-0.015454545454545455	-17.0	-0.22755102040816327	223.0	1.522892615829125E12	1.522892615833E12	1511.71875	49536.0	0.0	0.0	
-0.6106870229007634	-41.0	0.6259541984732824	40.0	1.1603053435114503	-76.0	0.28915662650602414	1285.0	9.180722891566266	2023.0	0.0	2047.0	-0.41454545454545455	456.0	-0.015454545454545455	-17.0	-0.22755102040816327	223.0	1.5228926158330313E12	1.522892615844E12	1515.625	49664.0	0.0	0.0	
-0.8091603053435115	-50.0	0.7633587786259541	53.0	1.083969465648855	-71.0	0.30120481927710846	1282.0	9.216867469879519	2022.0	0.012048192771084338	2046.0	-0.4118181818181818	453.0	-0.0018181818181818182	-2.0	-0.22551020408163266	221.0	1.5228926158369375E12	1.522892615845E12	1519.53125	49792.0	0.0	0.0	
-0.8091603053435115	-60.0	0.916030534351145	53.0	1.129770992366412	-74.0	0.20481927710843376	1284.0	9.19277108433735	2030.0	0.024096385542168676	2045.0	-0.42	462.0	-0.025454545454545455	-28.0	-0.23163265306122452	227.0	1.5228926158408438E12	1.522892615845E12	1523.4375	49920.0	0.0	0.0	
-0.6412213740458015	-67.0	1.0229007633587786	42.0	0.8396946564885496	-55.0	0.12048192771084337	1283.0	9.204819277108435	2037.0	0.024096385542168676	2045.0	-0.4163636363636364	458.0	-0.011818181818181818	-13.0	-0.22448979591836737	220.0	1.52289261584475E12	1.522892615854E12	1527.34375	50048.0	0.0	0.0	
-0.8396946564885496	-65.0	0.9923664122137404	55.0	1.0076335877862594	-66.0	0.07228915662650603	1284.0	9.19277108433735	2041.0	0.024096385542168676	2045.0	-0.42	462.0	-0.019090909090909092	-21.0	-0.22551020408163266	221.0	1.5228926158486563E12	1.522892615855E12	1531.25	50176.0	0.0	0.0	
-0.8244274809160305	-73.0	1.114503816793893	54.0	1.0381679389312977	-68.0	0.08433734939759037	1284.0	9.19277108433735	2040.0	0.03614457831325302	2044.0	-0.4218181818181818	464.0	-0.028181818181818183	-31.0	-0.23163265306122452	227.0	1.5228926158525625E12	1.522892615856E12	1535.15625	50304.0	0.0	0.0	
-0.7786259541984732	-73.0	1.114503816793893	51.0	1.2519083969465647	-82.0	0.12048192771084337	1284.0	9.19277108433735	2037.0	0.0963855421686747	2039.0	-0.4081818181818182	449.0	-0.02	-22.0	-0.22755102040816327	223.0	1.5228926158564688E12	1.522892615892E12	1539.0625	50432.0	0.0	0.0	
-0.8854961832061068	-69.0	1.0534351145038168	58.0	1.2366412213740459	-81.0	0.16867469879518074	1285.0	9.180722891566266	2033.0	0.13253012048192772	2036.0	-0.4081818181818182	449.0	-0.02	-22.0	-0.22755102040816327	223.0	1.522892615860375E12	1.522892615893E12	1542.96875	50560.0	0.0	0.0	
-0.7022900763358778	-49.0	0.7480916030534351	46.0	1.2519083969465647	-82.0	0.18072289156626506	1284.0	9.19277108433735	2032.0	0.12048192771084337	2037.0	-0.42	462.0	-0.01818181818181818	-20.0	-0.22755102040816327	223.0	1.5228926158642813E12	1.522892615895E12	1546.875	50688.0	0.0	0.0	
-0.549618320610687	-65.0	0.9923664122137404	36.0	0.9312977099236641	-61.0	0.13253012048192772	1284.0	9.19277108433735	2036.0	0.14457831325301207	2035.0	-0.42272727272727273	465.0	-0.02181818181818182	-24.0	-0.22244897959183677	218.0	1.5228926158681875E12	1.522892615896E12	1550.78125	50816.0	0.0	0.0	
-0.5801526717557252	-53.0	0.8091603053435115	38.0	0.9312977099236641	-61.0	0.04819277108433735	1283.0	9.204819277108435	2043.0	0.1566265060240964	2034.0	-0.41545454545454547	457.0	-0.015454545454545455	-17.0	-0.2285714285714286	224.0	1.5228926158720938E12	1.522892615898E12	1554.6875	50944.0	0.0	0.0	
-0.7022900763358778	-49.0	0.7480916030534351	46.0	0.9465648854961831	-62.0	0.012048192771084338	1282.0	9.216867469879519	2046.0	0.16867469879518074	2033.0	-0.4218181818181818	464.0	-0.023636363636363636	-26.0	-0.2295918367346939	225.0	1.522892615876E12	1.522892615899E12	1558.59375	51072.0	0.0	0.0	
-0.549618320610687	-25.0	0.38167938931297707	36.0	1.0381679389312977	-68.0	-0.024096385542168676	1283.0	9.204819277108435	2049.0	0.1927710843373494	2031.0	-0.4218181818181818	464.0	-0.025454545454545455	-28.0	-0.2326530612244898	228.0	1.5228926158799063E12	1.5228926159E12	1562.5	51200.0	0.0	0.0	
-0.564885496183206	-18.0	0.2748091603053435	37.0	1.0687022900763359	-70.0	-0.04819277108433735	1284.0	9.19277108433735	2051.0	0.20481927710843376	2030.0	-0.4218181818181818	464.0	-0.014545454545454545	-16.0	-0.2306122448979592	226.0	1.5228926158838125E12	1.5228926159E12	1566.40625	51328.0	0.0	0.0	
-0.6412213740458015	-19.0	0.2900763358778626	42.0	1.2519083969465647	-82.0	-0.012048192771084338	1284.0	9.19277108433735	2048.0	0.21686746987951808	2029.0	-0.4163636363636364	458.0	-0.014545454545454545	-16.0	-0.2306122448979592	226.0	1.5228926158877188E12	1.522892615902E12	1570.3125	51456.0	0.0	0.0	
-0.5038167938931297	-27.0	0.41221374045801523	33.0	1.0534351145038168	-69.0	0.012048192771084338	1285.0	9.180722891566266	2046.0	0.1927710843373494	2031.0	-0.4218181818181818	464.0	-0.02727272727272727	-30.0	-0.22755102040816327	223.0	1.522892615891625E12	1.522892615903E12	1574.21875	51584.0	0.0	0.0	
-0.48854961832061067	-32.0	0.48854961832061067	32.0	1.1450381679389312	-75.0	0.0	1285.0	9.180722891566266	2047.0	0.16867469879518074	2033.0	-0.4118181818181818	453.0	-0.01	-11.0	-0.2295918367346939	225.0	1.5228926158955313E12	1.522892615904E12	1578.125	51712.0	0.0	0.0	
-0.42748091603053434	-27.0	0.41221374045801523	28.0	1.1755725190839694	-77.0	-0.060240963855421686	1284.0	9.19277108433735	2052.0	0.1566265060240964	2034.0	-0.41909090909090907	461.0	-0.007272727272727273	-8.0	-0.22346938775510206	219.0	1.5228926158994375E12	1.522892615905E12	1582.03125	51840.0	0.0	0.0	
-0.2748091603053435	-25.0	0.38167938931297707	18.0	1.3129770992366412	-86.0	-0.12048192771084337	1283.0	9.204819277108435	2057.0	0.08433734939759037	2040.0	-0.4218181818181818	464.0	-0.025454545454545455	-28.0	-0.22653061224489798	222.0	1.5228926159033438E12	1.522892615919E12	1585.9375	51968.0	0.0	0.0	
-0.42748091603053434	-11.0	0.16793893129770993	28.0	1.2519083969465647	-82.0	-0.13253012048192772	1285.0	9.180722891566266	2058.0	0.08433734939759037	2040.0	-0.41363636363636364	455.0	-0.0018181818181818182	-2.0	-0.22040816326530616	216.0	1.52289261590725E12	1.52289261592E12	1589.84375	52096.0	0.0	0.0	
-0.42748091603053434	-15.0	0.22900763358778625	28.0	1.5114503816793892	-99.0	-0.04819277108433735	1285.0	9.180722891566266	2051.0	0.060240963855421686	2042.0	-0.41363636363636364	455.0	-0.0018181818181818182	-2.0	-0.22040816326530616	216.0	1.5228926159111563E12	1.522892615921E12	1593.75	52224.0	0.0	0.0	
-0.42748091603053434	-5.0	0.07633587786259542	28.0	1.4809160305343512	-97.0	0.07228915662650603	1287.0	9.156626506024097	2041.0	0.03614457831325302	2044.0	-0.4218181818181818	464.0	-0.015454545454545455	-17.0	-0.2295918367346939	225.0	1.5228926159150625E12	1.522892615946E12	1597.65625	52352.0	0.0	0.0	
-0.2900763358778626	-3.0	0.04580152671755725	19.0	1.5114503816793892	-99.0	0.13253012048192772	1286.0	9.168674698795181	2036.0	0.0	2047.0	-0.4209090909090909	463.0	-0.026363636363636363	-29.0	-0.22755102040816327	223.0	1.5228926159189688E12	1.522892615947E12	1601.5625	52480.0	0.0	0.0	
-0.2748091603053435	-13.0	0.1984732824427481	18.0	1.297709923664122	-85.0	0.16867469879518074	1284.0	9.19277108433735	2033.0	0.0	2047.0	-0.41818181818181815	460.0	-0.02727272727272727	-30.0	-0.2306122448979592	226.0	1.522892615922875E12	1.522892615948E12	1605.46875	52608.0	0.0	0.0	
-0.3053435114503817	-18.0	0.2748091603053435	20.0	1.5114503816793892	-99.0	0.16867469879518074	1283.0	9.204819277108435	2033.0	-0.060240963855421686	2052.0	-0.4163636363636364	458.0	-0.01	-11.0	-0.2295918367346939	225.0	1.5228926159267813E12	1.522892615949E12	1609.375	52736.0	0.0	0.0	
-0.15267175572519084	-25.0	0.38167938931297707	10.0	1.3740458015267174	-90.0	0.13253012048192772	1283.0	9.204819277108435	2036.0	-0.10843373493975904	2056.0	-0.4209090909090909	463.0	-0.025454545454545455	-28.0	-0.22653061224489798	222.0	1.5228926159306875E12	1.52289261595E12	1613.28125	52864.0	0.0	0.0	
-0.4580152671755725	-24.0	0.366412213740458	30.0	1.4045801526717556	-92.0	0.12048192771084337	1282.0	9.216867469879519	2037.0	-0.14457831325301207	2059.0	-0.41545454545454547	457.0	-0.013636363636363636	-15.0	-0.2285714285714286	224.0	1.5228926159345938E12	1.522892615951E12	1617.1875	52992.0	0.0	0.0	
-0.5954198473282443	-32.0	0.48854961832061067	39.0	1.450381679389313	-95.0	0.13253012048192772	1284.0	9.19277108433735	2036.0	-0.13253012048192772	2058.0	-0.41545454545454547	457.0	-0.013636363636363636	-15.0	-0.2285714285714286	224.0	1.5228926159385E12	1.522892615952E12	1621.09375	53120.0	0.0	0.0	
-0.8396946564885496	-38.0	0.5801526717557252	55.0	1.4809160305343512	-97.0	0.13253012048192772	1284.0	9.19277108433735	2036.0	-0.12048192771084337	2057.0	-0.41818181818181815	460.0	-0.015454545454545455	-17.0	-0.2285714285714286	224.0	1.5228926159424063E12	1.522892615953E12	1625.0	53248.0	0.0	0.0	
-0.4580152671755725	-31.0	0.47328244274809156	30.0	1.297709923664122	-85.0	0.16867469879518074	1284.0	9.19277108433735	2033.0	-0.10843373493975904	2056.0	-0.41818181818181815	460.0	-0.02727272727272727	-30.0	-0.22653061224489798	222.0	1.5228926159463125E12	1.522892615954E12	1628.90625	53376.0	0.0	0.0	
-0.7633587786259541	-41.0	0.6259541984732824	50.0	1.3587786259541985	-89.0	0.21686746987951808	1284.0	9.19277108433735	2029.0	-0.10843373493975904	2056.0	-0.4118181818181818	453.0	-0.013636363636363636	-15.0	-0.2306122448979592	226.0	1.5228926159502188E12	1.522892615958E12	1632.8125	53504.0	0.0	0.0	
-0.6106870229007634	-48.0	0.732824427480916	40.0	1.3435114503816794	-88.0	0.18072289156626506	1286.0	9.168674698795181	2032.0	-0.0963855421686747	2055.0	-0.41454545454545455	456.0	-0.01090909090909091	-12.0	-0.22448979591836737	220.0	1.522892615954125E12	1.52289261596E12	1636.71875	53632.0	0.0	0.0	
-0.48854961832061067	-51.0	0.7786259541984732	32.0	1.0687022900763359	-70.0	0.0963855421686747	1284.0	9.19277108433735	2039.0	-0.10843373493975904	2056.0	-0.42363636363636364	466.0	-0.025454545454545455	-28.0	-0.22551020408163266	221.0	1.5228926159580313E12	1.522892615961E12	1640.625	53760.0	0.0	0.0	
-0.5343511450381679	-37.0	0.564885496183206	35.0	1.4351145038167938	-94.0	0.060240963855421686	1283.0	9.204819277108435	2042.0	-0.16867469879518074	2061.0	-0.4172727272727273	459.0	-0.014545454545454545	-16.0	-0.22040816326530616	216.0	1.5228926159619375E12	1.522892615976E12	1644.53125	53888.0	0.0	0.0	
-0.8244274809160305	-28.0	0.42748091603053434	54.0	1.3893129770992365	-91.0	0.024096385542168676	1284.0	9.19277108433735	2045.0	-0.1927710843373494	2063.0	-0.4172727272727273	459.0	-0.014545454545454545	-16.0	-0.22040816326530616	216.0	1.5228926159658438E12	1.522892615977E12	1648.4375	54016.0	0.0	0.0	
-0.9465648854961831	-37.0	0.564885496183206	62.0	1.4045801526717556	-92.0	0.0	1283.0	9.204819277108435	2047.0	-0.14457831325301207	2059.0	-0.42454545454545456	467.0	-0.01818181818181818	-20.0	-0.22755102040816327	223.0	1.52289261596975E12	1.522892615982E12	1652.34375	54144.0	0.0	0.0	
-1.2519083969465647	-19.0	0.2900763358778626	82.0	1.450381679389313	-95.0	0.0	1284.0	9.19277108433735	2047.0	-0.10843373493975904	2056.0	-0.41545454545454547	457.0	-0.007272727272727273	-8.0	-0.22142857142857145	217.0	1.5228926159736563E12	1.522892615992E12	1656.25	54272.0	0.0	0.0	
-1.1603053435114503	-34.0	0.5190839694656488	76.0	1.5267175572519083	-100.0	0.04819277108433735	1284.0	9.19277108433735	2043.0	-0.060240963855421686	2052.0	-0.41454545454545455	456.0	-0.017272727272727273	-19.0	-0.22755102040816327	223.0	1.5228926159775625E12	1.522892615993E12	1660.15625	54400.0	0.0	0.0	
-1.2519083969465647	-36.0	0.549618320610687	82.0	1.5877862595419847	-104.0	0.08433734939759037	1285.0	9.180722891566266	2040.0	-0.024096385542168676	2049.0	-0.41818181818181815	460.0	-0.01	-11.0	-0.22653061224489798	222.0	1.5228926159814688E12	1.522892615994E12	1664.0625	54528.0	0.0	0.0	
-1.0076335877862594	-34.0	0.5190839694656488	66.0	1.5572519083969465	-102.0	0.0963855421686747	1286.0	9.168674698795181	2039.0	0.0	2047.0	-0.4172727272727273	459.0	-0.024545454545454544	-27.0	-0.22346938775510206	219.0	1.522892615985375E12	1.522892615996E12	1667.96875	54656.0	0.0	0.0	
-1.129770992366412	-54.0	0.8244274809160305	74.0	1.4961832061068703	-98.0	0.08433734939759037	1285.0	9.180722891566266	2040.0	0.0	2047.0	-0.41818181818181815	460.0	-0.012727272727272728	-14.0	-0.22244897959183677	218.0	1.5228926159892813E12	1.522892615997E12	1671.875	54784.0	0.0	0.0	
-1.1755725190839694	-39.0	0.5954198473282443	77.0	1.4809160305343512	-97.0	0.0963855421686747	1284.0	9.19277108433735	2039.0	0.0	2047.0	-0.41818181818181815	460.0	-0.012727272727272728	-14.0	-0.22244897959183677	218.0	1.5228926159931875E12	1.522892615998E12	1675.78125	54912.0	0.0	0.0	
-1.282442748091603	-43.0	0.6564885496183206	84.0	1.5877862595419847	-104.0	0.10843373493975904	1284.0	9.19277108433735	2038.0	0.0	2047.0	-0.4172727272727273	459.0	-0.01	-11.0	-0.22755102040816327	223.0	1.5228926159970938E12	1.522892616009E12	1679.6875	55040.0	0.0	0.0	
-1.4809160305343512	-9.0	0.13740458015267176	97.0	1.297709923664122	-85.0	0.16867469879518074	1284.0	9.19277108433735	2033.0	0.07228915662650603	2041.0	-0.42	462.0	-0.02727272727272727	-30.0	-0.22551020408163266	221.0	1.522892616001E12	1.52289261601E12	1683.59375	55168.0	0.0	0.0	
-1.4809160305343512	-35.0	0.5343511450381679	97.0	1.6030534351145038	-105.0	0.22891566265060243	1286.0	9.168674698795181	2028.0	0.16867469879518074	2033.0	-0.4163636363636364	458.0	-0.017272727272727273	-19.0	-0.2306122448979592	226.0	1.5228926160049063E12	1.52289261601E12	1687.5	55296.0	0.0	0.0	
-1.083969465648855	-30.0	0.4580152671755725	71.0	1.5419847328244274	-101.0	0.2530120481927711	1285.0	9.180722891566266	2026.0	0.1566265060240964	2034.0	-0.41818181818181815	460.0	-0.01090909090909091	-12.0	-0.22755102040816327	223.0	1.5228926160088125E12	1.522892616041E12	1691.40625	55424.0	0.0	0.0	
-0.8244274809160305	-32.0	0.48854961832061067	54.0	1.3129770992366412	-86.0	0.24096385542168675	1283.0	9.204819277108435	2027.0	0.0963855421686747	2039.0	-0.4218181818181818	464.0	-0.026363636363636363	-29.0	-0.22653061224489798	222.0	1.5228926160127188E12	1.522892616042E12	1695.3125	55552.0	0.0	0.0	
-1.0381679389312977	-37.0	0.564885496183206	68.0	1.4045801526717556	-92.0	0.24096385542168675	1282.0	9.216867469879519	2027.0	0.04819277108433735	2043.0	-0.4127272727272727	454.0	-0.015454545454545455	-17.0	-0.2295918367346939	225.0	1.522892616016625E12	1.522892616043E12	1699.21875	55680.0	0.0	0.0	
-0.8854961832061068	-44.0	0.6717557251908397	58.0	1.3893129770992365	-91.0	0.28915662650602414	1281.0	9.228915662650603	2023.0	0.024096385542168676	2045.0	-0.4127272727272727	454.0	-0.015454545454545455	-17.0	-0.2295918367346939	225.0	1.5228926160205313E12	1.522892616044E12	1703.125	55808.0	0.0	0.0	
-0.9007633587786259	-43.0	0.6564885496183206	59.0	1.2671755725190839	-83.0	0.3373493975903615	1283.0	9.204819277108435	2019.0	-0.012048192771084338	2048.0	-0.4109090909090909	452.0	-0.0036363636363636364	-4.0	-0.2285714285714286	224.0	1.5228926160244375E12	1.522892616045E12	1707.03125	55936.0	0.0	0.0	
-0.9007633587786259	-47.0	0.7175572519083969	59.0	1.2213740458015268	-80.0	0.3373493975903615	1283.0	9.204819277108435	2019.0	-0.03614457831325302	2050.0	-0.42272727272727273	465.0	-0.025454545454545455	-28.0	-0.22653061224489798	222.0	1.5228926160283438E12	1.522892616046E12	1710.9375	56064.0	0.0	0.0	
-0.732824427480916	-61.0	0.9312977099236641	48.0	1.1450381679389312	-75.0	0.3373493975903615	1283.0	9.204819277108435	2019.0	-0.024096385542168676	2049.0	-0.4172727272727273	459.0	-0.024545454545454544	-27.0	-0.2295918367346939	225.0	1.52289261603225E12	1.522892616047E12	1714.84375	56192.0	0.0	0.0	
-1.083969465648855	-61.0	0.9312977099236641	71.0	1.0076335877862594	-66.0	0.28915662650602414	1284.0	9.19277108433735	2023.0	0.0	2047.0	-0.4172727272727273	459.0	-0.011818181818181818	-13.0	-0.22448979591836737	220.0	1.5228926160361563E12	1.522892616048E12	1718.75	56320.0	0.0	0.0	
-1.2519083969465647	-61.0	0.9312977099236641	82.0	0.8244274809160305	-54.0	0.2530120481927711	1285.0	9.180722891566266	2026.0	0.0	2047.0	-0.4218181818181818	464.0	-0.024545454545454544	-27.0	-0.22653061224489798	222.0	1.5228926160400625E12	1.522892616049E12	1722.65625	56448.0	0.0	0.0	
-1.2061068702290076	-49.0	0.7480916030534351	79.0	1.3740458015267174	-90.0	0.24096385542168675	1284.0	9.19277108433735	2027.0	0.0	2047.0	-0.4218181818181818	464.0	-0.024545454545454544	-27.0	-0.22653061224489798	222.0	1.5228926160439688E12	1.522892616061E12	1726.5625	56576.0	0.0	0.0	
-0.9770992366412213	-67.0	1.0229007633587786	64.0	0.732824427480916	-48.0	0.16867469879518074	1284.0	9.19277108433735	2033.0	-0.012048192771084338	2048.0	-0.41454545454545455	456.0	-0.023636363636363636	-26.0	-0.23163265306122452	227.0	1.522892616047875E12	1.522892616062E12	1730.46875	56704.0	0.0	0.0	
-1.0229007633587786	-65.0	0.9923664122137404	67.0	1.0381679389312977	-68.0	0.12048192771084337	1283.0	9.204819277108435	2037.0	-0.04819277108433735	2051.0	-0.42	462.0	-0.013636363636363636	-15.0	-0.2285714285714286	224.0	1.5228926160517813E12	1.522892616063E12	1734.375	56832.0	0.0	0.0	
-0.8091603053435115	-88.0	1.3435114503816794	53.0	0.7633587786259541	-50.0	0.060240963855421686	1282.0	9.216867469879519	2042.0	-0.07228915662650603	2053.0	-0.42	462.0	-0.007272727272727273	-8.0	-0.22244897959183677	218.0	1.5228926160556875E12	1.522892616064E12	1738.28125	56960.0	0.0	0.0	
-1.1755725190839694	-86.0	1.3129770992366412	77.0	0.8396946564885496	-55.0	0.0	1282.0	9.216867469879519	2047.0	-0.03614457831325302	2050.0	-0.4172727272727273	459.0	-0.017272727272727273	-19.0	-0.2295918367346939	225.0	1.5228926160595938E12	1.522892616071E12	1742.1875	57088.0	0.0	0.0	
-1.4351145038167938	-91.0	1.3893129770992365	94.0	1.0229007633587786	-67.0	-0.03614457831325302	1284.0	9.19277108433735	2050.0	0.03614457831325302	2044.0	-0.4109090909090909	452.0	-0.00909090909090909	-10.0	-0.22551020408163266	221.0	1.5228926160635E12	1.522892616072E12	1746.09375	57216.0	0.0	0.0	
-1.2061068702290076	-85.0	1.297709923664122	79.0	0.9770992366412213	-64.0	-0.08433734939759037	1286.0	9.168674698795181	2054.0	0.10843373493975904	2038.0	-0.4218181818181818	464.0	-0.025454545454545455	-28.0	-0.22653061224489798	222.0	1.5228926160674063E12	1.522892616073E12	1750.0	57344.0	0.0	0.0	
-1.5725190839694656	-81.0	1.2366412213740459	103.0	1.129770992366412	-74.0	-0.12048192771084337	1285.0	9.180722891566266	2057.0	0.13253012048192772	2036.0	-0.4218181818181818	464.0	-0.025454545454545455	-28.0	-0.22653061224489798	222.0	1.5228926160713125E12	1.522892616081E12	1753.90625	57472.0	0.0	0.0	
-1.4351145038167938	-88.0	1.3435114503816794	94.0	1.2366412213740459	-81.0	-0.13253012048192772	1285.0	9.180722891566266	2058.0	0.14457831325301207	2035.0	-0.41454545454545455	456.0	-0.025454545454545455	-28.0	-0.2326530612244898	228.0	1.5228926160752188E12	1.522892616083E12	1757.8125	57600.0	0.0	0.0	
-1.1450381679389312	-74.0	1.129770992366412	75.0	1.2213740458015268	-80.0	-0.1927710843373494	1284.0	9.19277108433735	2063.0	0.18072289156626506	2032.0	-0.4090909090909091	450.0	-0.013636363636363636	-15.0	-0.22551020408163266	221.0	1.522892616079125E12	1.522892616084E12	1761.71875	57728.0	0.0	0.0	
-1.2213740458015268	-68.0	1.0381679389312977	80.0	1.3129770992366412	-86.0	-0.20481927710843376	1284.0	9.19277108433735	2064.0	0.16867469879518074	2033.0	-0.41909090909090907	461.0	-0.02727272727272727	-30.0	-0.2295918367346939	225.0	1.5228926160830313E12	1.522892616096E12	1765.625	57856.0	0.0	0.0	
-1.3587786259541985	-55.0	0.8396946564885496	89.0	1.4198473282442747	-93.0	-0.22891566265060243	1285.0	9.180722891566266	2066.0	0.14457831325301207	2035.0	-0.4172727272727273	459.0	-0.024545454545454544	-27.0	-0.2306122448979592	226.0	1.5228926160869375E12	1.522892616097E12	1769.53125	57984.0	0.0	0.0	
-1.282442748091603	-48.0	0.732824427480916	84.0	1.618320610687023	-106.0	-0.20481927710843376	1286.0	9.168674698795181	2064.0	0.1566265060240964	2034.0	-0.41909090909090907	461.0	-0.014545454545454545	-16.0	-0.22653061224489798	222.0	1.5228926160908438E12	1.522892616098E12	1773.4375	58112.0	0.0	0.0	
-1.3893129770992365	-26.0	0.3969465648854962	91.0	1.4961832061068703	-98.0	-0.1566265060240964	1284.0	9.19277108433735	2060.0	0.18072289156626506	2032.0	-0.41454545454545455	456.0	-0.008181818181818182	-9.0	-0.22244897959183677	218.0	1.52289261609475E12	1.522892616102E12	1777.34375	58240.0	0.0	0.0	
-1.297709923664122	-47.0	0.7175572519083969	85.0	1.648854961832061	-108.0	-0.12048192771084337	1287.0	9.156626506024097	2057.0	0.21686746987951808	2029.0	-0.41454545454545455	456.0	-0.008181818181818182	-9.0	-0.22244897959183677	218.0	1.5228926160986563E12	1.522892616103E12	1781.25	58368.0	0.0	0.0	
-1.1603053435114503	-26.0	0.3969465648854962	76.0	1.6335877862595418	-107.0	-0.07228915662650603	1285.0	9.180722891566266	2053.0	0.2530120481927711	2026.0	-0.41545454545454547	457.0	-0.02090909090909091	-23.0	-0.2306122448979592	226.0	1.5228926161025625E12	1.522892616105E12	1785.15625	58496.0	0.0	0.0	
-1.0076335877862594	-43.0	0.6564885496183206	66.0	1.9541984732824427	-128.0	-0.012048192771084338	1285.0	9.180722891566266	2048.0	0.2530120481927711	2026.0	-0.4209090909090909	463.0	-0.017272727272727273	-19.0	-0.22755102040816327	223.0	1.5228926161064688E12	1.522892616118E12	1789.0625	58624.0	0.0	0.0	
-1.0076335877862594	-37.0	0.564885496183206	66.0	1.7709923664122136	-116.0	0.0	1283.0	9.204819277108435	2047.0	0.24096385542168675	2027.0	-0.42	462.0	-0.014545454545454545	-16.0	-0.22244897959183677	218.0	1.522892616110375E12	1.522892616119E12	1792.96875	58752.0	0.0	0.0	
-0.9618320610687022	-24.0	0.366412213740458	63.0	1.83206106870229	-120.0	0.0	1284.0	9.19277108433735	2047.0	0.24096385542168675	2027.0	-0.41363636363636364	455.0	-0.01818181818181818	-20.0	-0.2306122448979592	226.0	1.5228926161142813E12	1.522892616122E12	1796.875	58880.0	0.0	0.0	
-0.8702290076335878	-18.0	0.2748091603053435	57.0	1.984732824427481	-130.0	0.04819277108433735	1282.0	9.216867469879519	2043.0	0.20481927710843376	2030.0	-0.4218181818181818	464.0	-0.014545454545454545	-16.0	-0.22448979591836737	220.0	1.5228926161181875E12	1.52289261613E12	1800.78125	59008.0	0.0	0.0	
-0.9770992366412213	-20.0	0.3053435114503817	64.0	1.9083969465648853	-125.0	0.12048192771084337	1285.0	9.180722891566266	2037.0	0.18072289156626506	2032.0	-0.41818181818181815	460.0	-0.019090909090909092	-21.0	-0.2306122448979592	226.0	1.5228926161220938E12	1.522892616131E12	1804.6875	59136.0	0.0	0.0	
-0.8549618320610687	-7.0	0.10687022900763359	56.0	1.648854961832061	-108.0	0.14457831325301207	1284.0	9.19277108433735	2035.0	0.20481927710843376	2030.0	-0.41818181818181815	460.0	-0.019090909090909092	-21.0	-0.2306122448979592	226.0	1.522892616126E12	1.522892616131E12	1808.59375	59264.0	0.0	0.0	
-0.9312977099236641	-5.0	0.07633587786259542	61.0	1.7709923664122136	-116.0	0.1927710843373494	1285.0	9.180722891566266	2031.0	0.20481927710843376	2030.0	-0.41363636363636364	455.0	-0.017272727272727273	-19.0	-0.2295918367346939	225.0	1.5228926161299063E12	1.522892616139E12	1812.5	59392.0	0.0	0.0	
-0.6412213740458015	-9.0	0.13740458015267176	42.0	1.7099236641221374	-112.0	0.18072289156626506	1285.0	9.180722891566266	2032.0	0.1927710843373494	2031.0	-0.41363636363636364	455.0	-0.02090909090909091	-23.0	-0.22551020408163266	221.0	1.5228926161338125E12	1.52289261614E12	1816.40625	59520.0	0.0	0.0	
-0.8854961832061068	0.0	0.0	58.0	1.7862595419847327	-117.0	0.13253012048192772	1285.0	9.180722891566266	2036.0	0.1566265060240964	2034.0	-0.41454545454545455	456.0	-0.015454545454545455	-17.0	-0.22551020408163266	221.0	1.5228926161377188E12	1.522892616141E12	1820.3125	59648.0	0.0	0.0	
-0.7480916030534351	-15.0	0.22900763358778625	49.0	1.7251908396946565	-113.0	0.10843373493975904	1285.0	9.180722891566266	2038.0	0.12048192771084337	2037.0	-0.4109090909090909	452.0	-0.014545454545454545	-16.0	-0.2306122448979592	226.0	1.522892616141625E12	1.522892616154E12	1824.21875	59776.0	0.0	0.0	
-0.6106870229007634	6.0	-0.0916030534351145	40.0	1.816793893129771	-119.0	0.10843373493975904	1284.0	9.19277108433735	2038.0	0.08433734939759037	2040.0	-0.41909090909090907	461.0	-0.017272727272727273	-19.0	-0.22448979591836737	220.0	1.5228926161455313E12	1.522892616155E12	1828.125	59904.0	0.0	0.0	
-0.8091603053435115	1.0	-0.015267175572519083	53.0	1.6946564885496183	-111.0	0.12048192771084337	1284.0	9.19277108433735	2037.0	0.060240963855421686	2042.0	-0.41454545454545455	456.0	-0.023636363636363636	-26.0	-0.22755102040816327	223.0	1.5228926161494375E12	1.522892616157E12	1832.03125	60032.0	0.0	0.0	
-0.8244274809160305	-4.0	0.061068702290076333	54.0	1.9083969465648853	-125.0	0.13253012048192772	1284.0	9.19277108433735	2036.0	0.024096385542168676	2045.0	-0.41454545454545455	456.0	-0.023636363636363636	-26.0	-0.22755102040816327	223.0	1.5228926161533438E12	1.522892616193E12	1835.9375	60160.0	0.0	0.0	
-0.916030534351145	-5.0	0.07633587786259542	60.0	1.8015267175572518	-118.0	0.14457831325301207	1284.0	9.19277108433735	2035.0	0.03614457831325302	2044.0	-0.41363636363636364	455.0	-0.015454545454545455	-17.0	-0.2295918367346939	225.0	1.52289261615725E12	1.522892616194E12	1839.84375	60288.0	0.0	0.0	
-1.0381679389312977	-20.0	0.3053435114503817	68.0	1.6793893129770991	-110.0	0.14457831325301207	1285.0	9.180722891566266	2035.0	0.03614457831325302	2044.0	-0.4209090909090909	463.0	-0.01818181818181818	-20.0	-0.22653061224489798	222.0	1.5228926161611563E12	1.522892616195E12	1843.75	60416.0	0.0	0.0	
-0.9312977099236641	-16.0	0.24427480916030533	61.0	1.8015267175572518	-118.0	0.1566265060240964	1286.0	9.168674698795181	2034.0	0.03614457831325302	2044.0	-0.4163636363636364	458.0	-0.026363636363636363	-29.0	-0.2295918367346939	225.0	1.5228926161650625E12	1.522892616196E12	1847.65625	60544.0	0.0	0.0	
-1.083969465648855	-3.0	0.04580152671755725	71.0	1.7099236641221374	-112.0	0.16867469879518074	1285.0	9.180722891566266	2033.0	0.04819277108433735	2043.0	-0.42	462.0	-0.015454545454545455	-17.0	-0.22755102040816327	223.0	1.5228926161689688E12	1.522892616197E12	1851.5625	60672.0	0.0	0.0	
-0.7633587786259541	-11.0	0.16793893129770993	50.0	1.8473282442748091	-121.0	0.21686746987951808	1285.0	9.180722891566266	2029.0	0.03614457831325302	2044.0	-0.4218181818181818	464.0	-0.022727272727272728	-25.0	-0.22448979591836737	220.0	1.522892616172875E12	1.522892616198E12	1855.46875	60800.0	0.0	0.0	
-0.8702290076335878	-12.0	0.183206106870229	57.0	1.6030534351145038	-105.0	0.1927710843373494	1284.0	9.19277108433735	2031.0	0.012048192771084338	2046.0	-0.4218181818181818	464.0	-0.022727272727272728	-25.0	-0.23163265306122452	227.0	1.5228926161767813E12	1.522892616199E12	1859.375	60928.0	0.0	0.0	
-0.9465648854961831	-25.0	0.38167938931297707	62.0	1.7709923664122136	-116.0	0.18072289156626506	1284.0	9.19277108433735	2032.0	0.0	2047.0	-0.42	462.0	-0.022727272727272728	-25.0	-0.23163265306122452	227.0	1.5228926161806875E12	1.5228926162E12	1863.28125	61056.0	0.0	0.0	
-0.9770992366412213	-22.0	0.33587786259541985	64.0	1.8473282442748091	-121.0	0.13253012048192772	1284.0	9.19277108433735	2036.0	0.012048192771084338	2046.0	-0.41454545454545455	456.0	-0.013636363636363636	-15.0	-0.2306122448979592	226.0	1.5228926161845938E12	1.522892616201E12	1867.1875	61184.0	0.0	0.0	
-0.9312977099236641	-37.0	0.564885496183206	61.0	1.648854961832061	-108.0	0.10843373493975904	1282.0	9.216867469879519	2038.0	0.024096385542168676	2045.0	-0.41818181818181815	460.0	-0.02181818181818182	-24.0	-0.22551020408163266	221.0	1.5228926161885E12	1.522892616202E12	1871.09375	61312.0	0.0	0.0	
-1.1450381679389312	-38.0	0.5801526717557252	75.0	1.7557251908396947	-115.0	0.10843373493975904	1284.0	9.19277108433735	2038.0	0.060240963855421686	2042.0	-0.4218181818181818	464.0	-0.023636363636363636	-26.0	-0.23163265306122452	227.0	1.5228926161924063E12	1.522892616204E12	1875.0	61440.0	0.0	0.0	
-0.9465648854961831	-36.0	0.549618320610687	62.0	1.66412213740458	-109.0	0.10843373493975904	1284.0	9.19277108433735	2038.0	0.08433734939759037	2040.0	-0.4172727272727273	459.0	-0.014545454545454545	-16.0	-0.2306122448979592	226.0	1.5228926161963125E12	1.522892616204E12	1878.90625	61568.0	0.0	0.0	
-0.916030534351145	-44.0	0.6717557251908397	60.0	1.5114503816793892	-99.0	0.1566265060240964	1286.0	9.168674698795181	2034.0	0.14457831325301207	2035.0	-0.42	462.0	-0.023636363636363636	-26.0	-0.22551020408163266	221.0	1.5228926162002188E12	1.522892616212E12	1882.8125	61696.0	0.0	0.0	
-1.1450381679389312	-36.0	0.549618320610687	75.0	1.7862595419847327	-117.0	0.22891566265060243	1284.0	9.19277108433735	2028.0	0.16867469879518074	2033.0	-0.42	462.0	-0.023636363636363636	-26.0	-0.22551020408163266	221.0	1.522892616204125E12	1.522892616213E12	1886.71875	61824.0	0.0	0.0	
-1.099236641221374	-32.0	0.48854961832061067	72.0	1.7557251908396947	-115.0	0.3132530120481928	1285.0	9.180722891566266	2021.0	0.16867469879518074	2033.0	-0.4218181818181818	464.0	-0.022727272727272728	-25.0	-0.22448979591836737	220.0	1.5228926162080313E12	1.522892616214E12	1890.625	61952.0	0.0	0.0	
-0.9770992366412213	-34.0	0.5190839694656488	64.0	1.4809160305343512	-97.0	0.3493975903614458	1286.0	9.168674698795181	2018.0	0.18072289156626506	2032.0	-0.4081818181818182	449.0	-0.02	-22.0	-0.22755102040816327	223.0	1.5228926162119375E12	1.522892616222E12	1894.53125	62080.0	0.0	0.0	
-1.1450381679389312	-36.0	0.549618320610687	75.0	1.2519083969465647	-82.0	0.3132530120481928	1283.0	9.204819277108435	2021.0	0.1566265060240964	2034.0	-0.41454545454545455	456.0	-0.006363636363636364	-7.0	-0.22346938775510206	219.0	1.5228926162158438E12	1.522892616223E12	1898.4375	62208.0	0.0	0.0	
-0.8854961832061068	-39.0	0.5954198473282443	58.0	1.2366412213740459	-81.0	0.27710843373493976	1282.0	9.216867469879519	2024.0	0.14457831325301207	2035.0	-0.4127272727272727	454.0	-0.0036363636363636364	-4.0	-0.21734693877551023	213.0	1.52289261621975E12	1.522892616224E12	1902.34375	62336.0	0.0	0.0	
-0.8854961832061068	-30.0	0.4580152671755725	58.0	1.297709923664122	-85.0	0.21686746987951808	1282.0	9.216867469879519	2029.0	0.14457831325301207	2035.0	-0.41545454545454547	457.0	-0.015454545454545455	-17.0	-0.2306122448979592	226.0	1.5228926162236563E12	1.522892616235E12	1906.25	62464.0	0.0	0.0	
-0.9312977099236641	-33.0	0.5038167938931297	61.0	1.2366412213740459	-81.0	0.16867469879518074	1284.0	9.19277108433735	2033.0	0.1566265060240964	2034.0	-0.4209090909090909	463.0	-0.026363636363636363	-29.0	-0.22755102040816327	223.0	1.5228926162275625E12	1.522892616236E12	1910.15625	62592.0	0.0	0.0	
-0.6259541984732824	-41.0	0.6259541984732824	41.0	1.3435114503816794	-88.0	0.1566265060240964	1285.0	9.180722891566266	2034.0	0.18072289156626506	2032.0	-0.4209090909090909	463.0	-0.026363636363636363	-29.0	-0.22755102040816327	223.0	1.5228926162314688E12	1.522892616236E12	1914.0625	62720.0	0.0	0.0	
-0.7633587786259541	-42.0	0.6412213740458015	50.0	1.3129770992366412	-86.0	0.18072289156626506	1285.0	9.180722891566266	2032.0	0.21686746987951808	2029.0	-0.4163636363636364	458.0	-0.024545454545454544	-27.0	-0.2306122448979592	226.0	1.522892616235375E12	1.522892616253E12	1917.96875	62848.0	0.0	0.0	
-0.9007633587786259	-46.0	0.7022900763358778	59.0	1.3282442748091603	-87.0	0.18072289156626506	1284.0	9.19277108433735	2032.0	0.21686746987951808	2029.0	-0.4218181818181818	464.0	-0.014545454545454545	-16.0	-0.23163265306122452	227.0	1.5228926162392813E12	1.522892616253E12	1921.875	62976.0	0.0	0.0	
-0.5801526717557252	-55.0	0.8396946564885496	38.0	1.2519083969465647	-82.0	0.14457831325301207	1285.0	9.180722891566266	2035.0	0.21686746987951808	2029.0	-0.41909090909090907	461.0	-0.026363636363636363	-29.0	-0.22551020408163266	221.0	1.5228926162431875E12	1.522892616254E12	1925.78125	63104.0	0.0	0.0	
-0.6564885496183206	-29.0	0.4427480916030534	43.0	1.282442748091603	-84.0	0.10843373493975904	1285.0	9.180722891566266	2038.0	0.20481927710843376	2030.0	-0.4209090909090909	463.0	-0.02	-22.0	-0.2306122448979592	226.0	1.5228926162470938E12	1.52289261626E12	1929.6875	63232.0	0.0	0.0	
-0.9312977099236641	-39.0	0.5954198473282443	61.0	1.2519083969465647	-82.0	0.07228915662650603	1284.0	9.19277108433735	2041.0	0.21686746987951808	2029.0	-0.41454545454545455	456.0	-0.016363636363636365	-18.0	-0.2306122448979592	226.0	1.522892616251E12	1.522892616261E12	1933.59375	63360.0	0.0	0.0	
-0.7022900763358778	-29.0	0.4427480916030534	46.0	1.3129770992366412	-86.0	0.012048192771084338	1284.0	9.19277108433735	2046.0	0.21686746987951808	2029.0	-0.41909090909090907	461.0	-0.02727272727272727	-30.0	-0.2285714285714286	224.0	1.5228926162549063E12	1.522892616261E12	1937.5	63488.0	0.0	0.0	
-0.7480916030534351	-33.0	0.5038167938931297	49.0	1.282442748091603	-84.0	-0.03614457831325302	1285.0	9.180722891566266	2050.0	0.21686746987951808	2029.0	-0.41909090909090907	461.0	-0.02727272727272727	-30.0	-0.2285714285714286	224.0	1.5228926162588125E12	1.522892616268E12	1941.40625	63616.0	0.0	0.0	
-0.8244274809160305	-13.0	0.1984732824427481	54.0	1.4961832061068703	-98.0	-0.03614457831325302	1287.0	9.156626506024097	2050.0	0.21686746987951808	2029.0	-0.4172727272727273	459.0	-0.019090909090909092	-21.0	-0.22551020408163266	221.0	1.5228926162627188E12	1.522892616269E12	1945.3125	63744.0	0.0	0.0	
-0.7175572519083969	-18.0	0.2748091603053435	47.0	1.450381679389313	-95.0	0.03614457831325302	1285.0	9.180722891566266	2044.0	0.20481927710843376	2030.0	-0.4163636363636364	458.0	-0.006363636363636364	-7.0	-0.2285714285714286	224.0	1.522892616266625E12	1.52289261627E12	1949.21875	63872.0	0.0	0.0	
-0.6259541984732824	-23.0	0.3511450381679389	41.0	1.450381679389313	-95.0	0.07228915662650603	1285.0	9.180722891566266	2041.0	0.1566265060240964	2034.0	-0.4209090909090909	463.0	-0.02727272727272727	-30.0	-0.22755102040816327	223.0	1.5228926162705313E12	1.522892616284E12	1953.125	64000.0	0.0	0.0	
-0.33587786259541985	-26.0	0.3969465648854962	22.0	1.3740458015267174	-90.0	0.04819277108433735	1283.0	9.204819277108435	2043.0	0.13253012048192772	2036.0	-0.41909090909090907	461.0	-0.015454545454545455	-17.0	-0.22244897959183677	218.0	1.5228926162744375E12	1.522892616285E12	1957.03125	64128.0	0.0	0.0	
-0.732824427480916	-35.0	0.5343511450381679	48.0	1.3587786259541985	-89.0	0.024096385542168676	1284.0	9.19277108433735	2045.0	0.13253012048192772	2036.0	-0.41818181818181815	460.0	-0.00909090909090909	-10.0	-0.2285714285714286	224.0	1.5228926162783438E12	1.522892616286E12	1960.9375	64256.0	0.0	0.0	
-0.732824427480916	-26.0	0.3969465648854962	48.0	1.450381679389313	-95.0	0.012048192771084338	1284.0	9.19277108433735	2046.0	0.14457831325301207	2035.0	-0.41363636363636364	455.0	-0.005454545454545455	-6.0	-0.2306122448979592	226.0	1.52289261628225E12	1.522892616292E12	1964.84375	64384.0	0.0	0.0	
-0.7938931297709924	-26.0	0.3969465648854962	52.0	1.6030534351145038	-105.0	0.03614457831325302	1285.0	9.180722891566266	2044.0	0.1566265060240964	2034.0	-0.41363636363636364	455.0	-0.005454545454545455	-6.0	-0.2306122448979592	226.0	1.5228926162861563E12	1.522892616293E12	1968.75	64512.0	0.0	0.0	
-0.7480916030534351	-24.0	0.366412213740458	49.0	1.7709923664122136	-116.0	0.12048192771084337	1286.0	9.168674698795181	2037.0	0.18072289156626506	2032.0	-0.4163636363636364	458.0	-0.02181818181818182	-24.0	-0.2285714285714286	224.0	1.5228926162900625E12	1.522892616294E12	1972.65625	64640.0	0.0	0.0	
-0.6106870229007634	-8.0	0.12213740458015267	40.0	1.465648854961832	-96.0	0.13253012048192772	1284.0	9.19277108433735	2036.0	0.18072289156626506	2032.0	-0.4172727272727273	459.0	-0.008181818181818182	-9.0	-0.2306122448979592	226.0	1.5228926162939688E12	1.52289261631E12	1976.5625	64768.0	0.0	0.0	
-0.7022900763358778	-15.0	0.22900763358778625	46.0	1.3740458015267174	-90.0	0.13253012048192772	1283.0	9.204819277108435	2036.0	0.1566265060240964	2034.0	-0.41818181818181815	460.0	-0.008181818181818182	-9.0	-0.22040816326530616	216.0	1.522892616297875E12	1.522892616311E12	1980.46875	64896.0	0.0	0.0	
-0.4580152671755725	-31.0	0.47328244274809156	30.0	1.3740458015267174	-90.0	0.060240963855421686	1282.0	9.216867469879519	2042.0	0.1566265060240964	2034.0	-0.41454545454545455	456.0	-0.023636363636363636	-26.0	-0.22551020408163266	221.0	1.5228926163017813E12	1.522892616311E12	1984.375	65024.0	0.0	0.0	
-0.5343511450381679	-38.0	0.5801526717557252	35.0	1.3282442748091603	-87.0	0.03614457831325302	1281.0	9.228915662650603	2044.0	0.14457831325301207	2035.0	-0.4090909090909091	450.0	-0.00909090909090909	-10.0	-0.2285714285714286	224.0	1.5228926163056875E12	1.522892616343E12	1988.28125	65152.0	0.0	0.0	
-0.4580152671755725	-40.0	0.6106870229007634	30.0	1.4045801526717556	-92.0	0.012048192771084338	1281.0	9.228915662650603	2046.0	0.14457831325301207	2035.0	-0.4109090909090909	452.0	-0.024545454545454544	-27.0	-0.22755102040816327	223.0	1.5228926163095938E12	1.522892616345E12	1992.1875	65280.0	0.0	0.0	
-0.6259541984732824	-29.0	0.4427480916030534	41.0	1.5114503816793892	-99.0	0.060240963855421686	1283.0	9.204819277108435	2042.0	0.18072289156626506	2032.0	-0.4109090909090909	452.0	-0.024545454545454544	-27.0	-0.22755102040816327	223.0	1.5228926163135E12	1.522892616346E12	1996.09375	65408.0	0.0	0.0	
-0.48854961832061067	-36.0	0.549618320610687	32.0	1.83206106870229	-120.0	0.0963855421686747	1284.0	9.19277108433735	2039.0	0.20481927710843376	2030.0	-0.41363636363636364	455.0	-0.01818181818181818	-20.0	-0.2306122448979592	226.0	1.5228926163174063E12	1.522892616347E12	2000.0	0.0	0.0	0.0	
-0.6106870229007634	-39.0	0.5954198473282443	40.0	1.5114503816793892	-99.0	0.12048192771084337	1285.0	9.180722891566266	2037.0	0.22891566265060243	2028.0	-0.42	462.0	-0.014545454545454545	-16.0	-0.22551020408163266	221.0	1.5228926163213125E12	1.522892616349E12	2003.90625	128.0	0.0	0.0	
-0.33587786259541985	-33.0	0.5038167938931297	22.0	1.5725190839694656	-103.0	0.10843373493975904	1286.0	9.168674698795181	2038.0	0.22891566265060243	2028.0	-0.41454545454545455	456.0	-0.008181818181818182	-9.0	-0.2295918367346939	225.0	1.5228926163252188E12	1.522892616352E12	2007.8125	256.0	0.0	0.0	
-0.16793893129770993	-35.0	0.5343511450381679	11.0	1.6946564885496183	-111.0	0.07228915662650603	1284.0	9.19277108433735	2041.0	0.22891566265060243	2028.0	-0.4172727272727273	459.0	-0.024545454545454544	-27.0	-0.2326530612244898	228.0	1.522892616329125E12	1.522892616352E12	2011.71875	384.0	0.0	0.0	
-0.13740458015267176	-32.0	0.48854961832061067	9.0	1.3282442748091603	-87.0	0.03614457831325302	1285.0	9.180722891566266	2044.0	0.1927710843373494	2031.0	-0.42272727272727273	465.0	-0.014545454545454545	-16.0	-0.22448979591836737	220.0	1.5228926163330313E12	1.522892616353E12	2015.625	512.0	0.0	0.0	
-0.16793893129770993	-35.0	0.5343511450381679	11.0	1.6335877862595418	-107.0	0.060240963855421686	1284.0	9.19277108433735	2042.0	0.1927710843373494	2031.0	-0.42272727272727273	465.0	-0.023636363636363636	-26.0	-0.22448979591836737	220.0	1.5228926163369375E12	1.522892616354E12	2019.53125	640.0	0.0	0.0	
-0.21374045801526717	-9.0	0.13740458015267176	14.0	1.7557251908396947	-115.0	0.12048192771084337	1285.0	9.180722891566266	2037.0	0.18072289156626506	2032.0	-0.42	462.0	-0.023636363636363636	-26.0	-0.22755102040816327	223.0	1.5228926163408438E12	1.522892616355E12	2023.4375	768.0	0.0	0.0	
-0.015267175572519083	5.0	-0.07633587786259542	1.0	1.7709923664122136	-116.0	0.16867469879518074	1285.0	9.180722891566266	2033.0	0.16867469879518074	2033.0	-0.4172727272727273	459.0	-0.02727272727272727	-30.0	-0.23163265306122452	227.0	1.52289261634475E12	1.522892616356E12	2027.34375	896.0	0.0	0.0	
-0.24427480916030533	-4.0	0.061068702290076333	16.0	1.3282442748091603	-87.0	0.14457831325301207	1285.0	9.180722891566266	2035.0	0.1566265060240964	2034.0	-0.4209090909090909	463.0	-0.017272727272727273	-19.0	-0.22755102040816327	223.0	1.5228926163486563E12	1.522892616357E12	2031.25	1024.0	0.0	0.0	
0.015267175572519083	-22.0	0.33587786259541985	-1.0	1.3893129770992365	-91.0	0.07228915662650603	1284.0	9.19277108433735	2041.0	0.14457831325301207	2035.0	-0.42	462.0	-0.024545454545454544	-27.0	-0.22653061224489798	222.0	1.5228926163525625E12	1.522892616357E12	2035.15625	1152.0	0.0	0.0	
-0.030534351145038167	-14.0	0.21374045801526717	2.0	1.3740458015267174	-90.0	0.04819277108433735	1285.0	9.180722891566266	2043.0	0.14457831325301207	2035.0	-0.41818181818181815	460.0	-0.025454545454545455	-28.0	-0.2285714285714286	224.0	1.5228926163564688E12	1.52289261637E12	2039.0625	1280.0	0.0	0.0	
-0.04580152671755725	-22.0	0.33587786259541985	3.0	1.5725190839694656	-103.0	0.03614457831325302	1284.0	9.19277108433735	2044.0	0.14457831325301207	2035.0	-0.4127272727272727	454.0	0.0018181818181818182	2.0	-0.2326530612244898	228.0	1.522892616360375E12	1.52289261637E12	2042.96875	1408.0	0.0	0.0	
-0.3053435114503817	-33.0	0.5038167938931297	20.0	1.7709923664122136	-116.0	0.07228915662650603	1286.0	9.168674698795181	2041.0	0.13253012048192772	2036.0	-0.4127272727272727	454.0	0.0018181818181818182	2.0	-0.2326530612244898	228.0	1.5228926163642813E12	1.522892616371E12	2046.875	1536.0	0.0	0.0	
-0.0916030534351145	-4.0	0.061068702290076333	6.0	1.7557251908396947	-115.0	0.12048192771084337	1285.0	9.180722891566266	2037.0	0.13253012048192772	2036.0	-0.41454545454545455	456.0	-0.006363636363636364	-7.0	-0.22653061224489798	222.0	1.5228926163681875E12	1.522892616382E12	2050.78125	1664.0	0.0	0.0	
0.015267175572519083	-18.0	0.2748091603053435	-1.0	1.7557251908396947	-115.0	0.1566265060240964	1285.0	9.180722891566266	2034.0	0.12048192771084337	2037.0	-0.41909090909090907	461.0	-0.025454545454545455	-28.0	-0.23163265306122452	227.0	1.5228926163720938E12	1.522892616383E12	2054.6875	1792.0	0.0	0.0	
-0.16793893129770993	-23.0	0.3511450381679389	11.0	1.6946564885496183	-111.0	0.14457831325301207	1284.0	9.19277108433735	2035.0	0.08433734939759037	2040.0	-0.41909090909090907	461.0	-0.016363636363636365	-18.0	-0.22448979591836737	220.0	1.522892616376E12	1.522892616385E12	2058.59375	1920.0	0.0	0.0	
-0.10687022900763359	-13.0	0.1984732824427481	7.0	1.5877862595419847	-104.0	0.10843373493975904	1285.0	9.180722891566266	2038.0	0.0963855421686747	2039.0	-0.41909090909090907	461.0	-0.025454545454545455	-28.0	-0.2295918367346939	225.0	1.5228926163799063E12	1.522892616386E12	2062.5	2048.0	0.0	0.0	
-0.15267175572519084	-7.0	0.10687022900763359	10.0	1.648854961832061	-108.0	0.060240963855421686	1285.0	9.180722891566266	2042.0	0.07228915662650603	2041.0	-0.41818181818181815	460.0	-0.02090909090909091	-23.0	-0.22346938775510206	219.0	1.5228926163838125E12	1.522892616387E12	2066.40625	2176.0	0.0	0.0	
-0.04580152671755725	-15.0	0.22900763358778625	3.0	1.6030534351145038	-105.0	0.04819277108433735	1283.0	9.204819277108435	2043.0	0.04819277108433735	2043.0	-0.42454545454545456	467.0	-0.01818181818181818	-20.0	-0.22346938775510206	219.0	1.5228926163877188E12	1.522892616389E12	2070.3125	2304.0	0.0	0.0	
-0.15267175572519084	-6.0	0.0916030534351145	10.0	1.5419847328244274	-101.0	0.03614457831325302	1285.0	9.180722891566266	2044.0	0.03614457831325302	2044.0	-0.42454545454545456	467.0	-0.01818181818181818	-20.0	-0.22346938775510206	219.0	1.522892616391625E12	1.522892616401E12	2074.21875	2432.0	0.0	0.0	
-0.21374045801526717	-20.0	0.3053435114503817	14.0	1.7251908396946565	-113.0	0.04819277108433735	1284.0	9.19277108433735	2043.0	0.03614457831325302	2044.0	-0.42	462.0	-0.019090909090909092	-21.0	-0.2295918367346939	225.0	1.5228926163955313E12	1.522892616403E12	2078.125	2560.0	0.0	0.0	
-0.07633587786259542	-6.0	0.0916030534351145	5.0	1.6030534351145038	-105.0	0.060240963855421686	1283.0	9.204819277108435	2042.0	0.024096385542168676	2045.0	-0.42	462.0	-0.017272727272727273	-19.0	-0.2295918367346939	225.0	1.5228926163994375E12	1.522892616404E12	2082.03125	2688.0	0.0	0.0	
-0.21374045801526717	-29.0	0.4427480916030534	14.0	1.7251908396946565	-113.0	0.03614457831325302	1284.0	9.19277108433735	2044.0	0.0	2047.0	-0.4254545454545455	468.0	-0.015454545454545455	-17.0	-0.22755102040816327	223.0	1.5228926164033438E12	1.522892616419E12	2085.9375	2816.0	0.0	0.0	
-0.2748091603053435	-29.0	0.4427480916030534	18.0	1.6946564885496183	-111.0	0.0	1284.0	9.19277108433735	2047.0	0.012048192771084338	2046.0	-0.4172727272727273	459.0	-0.019090909090909092	-21.0	-0.23163265306122452	227.0	1.52289261640725E12	1.52289261642E12	2089.84375	2944.0	0.0	0.0	
-0.42748091603053434	-29.0	0.4427480916030534	28.0	1.9083969465648853	-125.0	-0.012048192771084338	1284.0	9.19277108433735	2048.0	0.024096385542168676	2045.0	-0.4172727272727273	459.0	-0.00909090909090909	-10.0	-0.2295918367346939	225.0	1.5228926164111563E12	1.522892616422E12	2093.75	3072.0	0.0	0.0	
-0.33587786259541985	-32.0	0.48854961832061067	22.0	1.8778625954198473	-123.0	0.0	1285.0	9.180722891566266	2047.0	0.024096385542168676	2045.0	-0.41545454545454547	457.0	-0.023636363636363636	-26.0	-0.22653061224489798	222.0	1.5228926164150625E12	1.52289261643E12	2097.65625	3200.0	0.0	0.0	
-0.3511450381679389	-22.0	0.33587786259541985	23.0	1.7557251908396947	-115.0	0.04819277108433735	1284.0	9.19277108433735	2043.0	0.060240963855421686	2042.0	-0.41545454545454547	457.0	-0.023636363636363636	-26.0	-0.22653061224489798	222.0	1.5228926164189688E12	1.522892616431E12	2101.5625	3328.0	0.0	0.0	
-0.2900763358778626	-5.0	0.07633587786259542	19.0	1.7099236641221374	-112.0	0.08433734939759037	1286.0	9.168674698795181	2040.0	0.060240963855421686	2042.0	-0.41545454545454547	457.0	-0.022727272727272728	-25.0	-0.2306122448979592	226.0	1.522892616422875E12	1.522892616432E12	2105.46875	3456.0	0.0	0.0	
-0.15267175572519084	-17.0	0.2595419847328244	10.0	1.9541984732824427	-128.0	0.08433734939759037	1284.0	9.19277108433735	2040.0	0.03614457831325302	2044.0	-0.41454545454545455	456.0	-0.01818181818181818	-20.0	-0.22346938775510206	219.0	1.5228926164267813E12	1.522892616433E12	2109.375	3584.0	0.0	0.0	
-0.0916030534351145	-4.0	0.061068702290076333	6.0	1.7709923664122136	-116.0	0.08433734939759037	1283.0	9.204819277108435	2040.0	0.012048192771084338	2046.0	-0.4218181818181818	464.0	-0.016363636363636365	-18.0	-0.22142857142857145	217.0	1.5228926164306875E12	1.522892616434E12	2113.28125	3712.0	0.0	0.0	
-0.21374045801526717	-14.0	0.21374045801526717	14.0	1.8625954198473282	-122.0	0.07228915662650603	1283.0	9.204819277108435	2041.0	-0.03614457831325302	2050.0	-0.41818181818181815	460.0	-0.025454545454545455	-28.0	-0.2285714285714286	224.0	1.5228926164345938E12	1.522892616435E12	2117.1875	3840.0	0.0	0.0	
-0.21374045801526717	-21.0	0.32061068702290074	14.0	1.5725190839694656	-103.0	0.08433734939759037	1282.0	9.216867469879519	2040.0	-0.060240963855421686	2052.0	-0.41545454545454547	457.0	-0.016363636363636365	-18.0	-0.22755102040816327	223.0	1.5228926164385E12	1.522892616449E12	2121.09375	3968.0	0.0	0.0	
-0.38167938931297707	-14.0	0.21374045801526717	25.0	1.7404580152671756	-114.0	0.07228915662650603	1282.0	9.216867469879519	2041.0	-0.0963855421686747	2055.0	-0.4163636363636364	458.0	-0.0036363636363636364	-4.0	-0.22448979591836737	220.0	1.5228926164424063E12	1.522892616449E12	2125.0	4096.0	0.0	0.0	
-0.15267175572519084	-33.0	0.5038167938931297	10.0	1.6793893129770991	-110.0	0.08433734939759037	1283.0	9.204819277108435	2040.0	-0.10843373493975904	2056.0	-0.4163636363636364	458.0	-0.0036363636363636364	-4.0	-0.22448979591836737	220.0	1.5228926164463125E12	1.522892616451E12	2128.90625	4224.0	0.0	0.0	
-0.38167938931297707	-33.0	0.5038167938931297	25.0	1.7862595419847327	-117.0	0.12048192771084337	1284.0	9.19277108433735	2037.0	-0.08433734939759037	2054.0	-0.41909090909090907	461.0	-0.008181818181818182	-9.0	-0.22142857142857145	217.0	1.5228926164502188E12	1.522892616492E12	2132.8125	4352.0	0.0	0.0	
-0.564885496183206	-34.0	0.5190839694656488	37.0	1.9389312977099236	-127.0	0.0963855421686747	1285.0	9.180722891566266	2039.0	-0.08433734939759037	2054.0	-0.41909090909090907	461.0	-0.01	-11.0	-0.22653061224489798	222.0	1.522892616454125E12	1.522892616493E12	2136.71875	4480.0	0.0	0.0	
-0.4427480916030534	-43.0	0.6564885496183206	29.0	1.648854961832061	-108.0	0.0963855421686747	1284.0	9.19277108433735	2039.0	-0.060240963855421686	2052.0	-0.4218181818181818	464.0	-0.02090909090909091	-23.0	-0.22040816326530616	216.0	1.5228926164580313E12	1.522892616494E12	2140.625	4608.0	0.0	0.0	
-0.42748091603053434	-54.0	0.8244274809160305	28.0	1.7862595419847327	-117.0	0.060240963855421686	1284.0	9.19277108433735	2042.0	-0.060240963855421686	2052.0	-0.4218181818181818	464.0	-0.02090909090909091	-23.0	-0.21836734693877552	214.0	1.5228926164619375E12	1.522892616497E12	2144.53125	4736.0	0.0	0.0	
-0.3053435114503817	-45.0	0.6870229007633587	20.0	1.648854961832061	-108.0	0.07228915662650603	1282.0	9.216867469879519	2041.0	-0.08433734939759037	2054.0	-0.4127272727272727	454.0	-0.01	-11.0	-0.22551020408163266	221.0	1.5228926164658438E12	1.522892616498E12	2148.4375	4864.0	0.0	0.0	
-0.366412213740458	-50.0	0.7633587786259541	24.0	1.6335877862595418	-107.0	0.03614457831325302	1283.0	9.204819277108435	2044.0	-0.08433734939759037	2054.0	-0.42272727272727273	465.0	-0.02090909090909091	-23.0	-0.22755102040816327	223.0	1.52289261646975E12	1.522892616499E12	2152.34375	4992.0	0.0	0.0	
-0.47328244274809156	-42.0	0.6412213740458015	31.0	1.7099236641221374	-112.0	0.04819277108433735	1283.0	9.204819277108435	2043.0	-0.08433734939759037	2054.0	-0.42272727272727273	465.0	-0.02090909090909091	-23.0	-0.22755102040816327	223.0	1.5228926164736563E12	1.5228926165E12	2156.25	5120.0	0.0	0.0	
-0.5038167938931297	-24.0	0.366412213740458	33.0	1.7251908396946565	-113.0	0.024096385542168676	1284.0	9.19277108433735	2045.0	-0.08433734939759037	2054.0	-0.4218181818181818	464.0	-0.02909090909090909	-32.0	-0.2285714285714286	224.0	1.5228926164775625E12	1.522892616502E12	2160.15625	5248.0	0.0	0.0	
-0.6564885496183206	-34.0	0.5190839694656488	43.0	1.648854961832061	-108.0	-0.012048192771084338	1283.0	9.204819277108435	2048.0	-0.07228915662650603	2053.0	-0.4172727272727273	459.0	-0.01818181818181818	-20.0	-0.2295918367346939	225.0	1.5228926164814688E12	1.522892616503E12	2164.0625	5376.0	0.0	0.0	
-0.564885496183206	-43.0	0.6564885496183206	37.0	1.6946564885496183	-111.0	-0.024096385542168676	1284.0	9.19277108433735	2049.0	-0.060240963855421686	2052.0	-0.42363636363636364	466.0	-0.025454545454545455	-28.0	-0.22653061224489798	222.0	1.522892616485375E12	1.522892616504E12	2167.96875	5504.0	0.0	0.0	
-0.5801526717557252	-41.0	0.6259541984732824	38.0	1.83206106870229	-120.0	-0.024096385542168676	1283.0	9.204819277108435	2049.0	-0.060240963855421686	2052.0	-0.42	462.0	-0.024545454545454544	-27.0	-0.2306122448979592	226.0	1.5228926164892813E12	1.522892616505E12	2171.875	5632.0	0.0	0.0	
-0.6564885496183206	-42.0	0.6412213740458015	43.0	1.9083969465648853	-125.0	-0.024096385542168676	1286.0	9.168674698795181	2049.0	-0.03614457831325302	2050.0	-0.4172727272727273	459.0	-0.01818181818181818	-20.0	-0.2295918367346939	225.0	1.5228926164931875E12	1.522892616506E12	2175.78125	5760.0	0.0	0.0	
-0.41221374045801523	-39.0	0.5954198473282443	27.0	1.9236641221374045	-126.0	-0.04819277108433735	1286.0	9.168674698795181	2051.0	-0.03614457831325302	2050.0	-0.4172727272727273	459.0	-0.03	-33.0	-0.2295918367346939	225.0	1.5228926164970938E12	1.522892616508E12	2179.6875	5888.0	0.0	0.0	
-0.5190839694656488	-40.0	0.6106870229007634	34.0	2.030534351145038	-133.0	-0.04819277108433735	1283.0	9.204819277108435	2051.0	-0.04819277108433735	2051.0	-0.42272727272727273	465.0	-0.03	-33.0	-0.2285714285714286	224.0	1.522892616501E12	1.522892616509E12	2183.59375	6016.0	0.0	0.0	
-0.7938931297709924	-39.0	0.5954198473282443	52.0	2.1526717557251906	-141.0	-0.024096385542168676	1284.0	9.19277108433735	2049.0	-0.04819277108433735	2051.0	-0.4218181818181818	464.0	-0.022727272727272728	-25.0	-0.2285714285714286	224.0	1.5228926165049063E12	1.52289261651E12	2187.5	6144.0	0.0	0.0	
-0.7786259541984732	-28.0	0.42748091603053434	51.0	2.1526717557251906	-141.0	-0.03614457831325302	1285.0	9.180722891566266	2050.0	-0.03614457831325302	2050.0	-0.41	451.0	-0.015454545454545455	-17.0	-0.22653061224489798	222.0	1.5228926165088125E12	1.522892616524E12	2191.40625	6272.0	0.0	0.0	
-0.7938931297709924	-13.0	0.1984732824427481	52.0	2.2900763358778624	-150.0	0.060240963855421686	1287.0	9.156626506024097	2042.0	-0.012048192771084338	2048.0	-0.4118181818181818	453.0	-0.01	-11.0	-0.2285714285714286	224.0	1.5228926165127188E12	1.522892616525E12	2195.3125	6400.0	0.0	0.0	
-0.7480916030534351	-17.0	0.2595419847328244	49.0	2.213740458015267	-145.0	0.1927710843373494	1286.0	9.168674698795181	2031.0	0.0	2047.0	-0.42	462.0	-0.017272727272727273	-19.0	-0.22142857142857145	217.0	1.522892616516625E12	1.522892616526E12	2199.21875	6528.0	0.0	0.0	
-0.8091603053435115	-14.0	0.21374045801526717	53.0	2.3053435114503817	-151.0	0.2530120481927711	1285.0	9.180722891566266	2026.0	-0.03614457831325302	2050.0	-0.41818181818181815	460.0	-0.01818181818181818	-20.0	-0.22755102040816327	223.0	1.5228926165205313E12	1.522892616528E12	2203.125	6656.0	0.0	0.0	
-0.8244274809160305	-33.0	0.5038167938931297	54.0	2.0763358778625953	-136.0	0.24096385542168675	1282.0	9.216867469879519	2027.0	-0.060240963855421686	2052.0	-0.41818181818181815	460.0	-0.01818181818181818	-20.0	-0.22755102040816327	223.0	1.5228926165244375E12	1.522892616529E12	2207.03125	6784.0	0.0	0.0	
-0.5801526717557252	-26.0	0.3969465648854962	38.0	1.984732824427481	-130.0	0.18072289156626506	1284.0	9.19277108433735	2032.0	-0.0963855421686747	2055.0	-0.41909090909090907	461.0	-0.025454545454545455	-28.0	-0.22755102040816327	223.0	1.5228926165283438E12	1.522892616529E12	2210.9375	6912.0	0.0	0.0	
-0.7633587786259541	-48.0	0.732824427480916	50.0	2.091603053435114	-137.0	0.18072289156626506	1284.0	9.19277108433735	2032.0	-0.13253012048192772	2058.0	-0.42	462.0	-0.011818181818181818	-13.0	-0.2306122448979592	226.0	1.52289261653225E12	1.522892616542E12	2214.84375	7040.0	0.0	0.0	
-0.6259541984732824	-37.0	0.564885496183206	41.0	2.213740458015267	-145.0	0.20481927710843376	1283.0	9.204819277108435	2030.0	-0.13253012048192772	2058.0	-0.4209090909090909	463.0	-0.014545454545454545	-16.0	-0.22653061224489798	222.0	1.5228926165361563E12	1.522892616543E12	2218.75	7168.0	0.0	0.0	
-0.9465648854961831	-24.0	0.366412213740458	62.0	2.351145038167939	-154.0	0.3132530120481928	1283.0	9.204819277108435	2021.0	-0.12048192771084337	2057.0	-0.42272727272727273	465.0	-0.024545454545454544	-27.0	-0.22551020408163266	221.0	1.5228926165400625E12	1.522892616544E12	2222.65625	7296.0	0.0	0.0	
-0.9007633587786259	-38.0	0.5801526717557252	59.0	2.3664122137404577	-155.0	0.3614457831325301	1285.0	9.180722891566266	2017.0	-0.14457831325301207	2059.0	-0.42	462.0	-0.026363636363636363	-29.0	-0.22653061224489798	222.0	1.5228926165439688E12	1.522892616556E12	2226.5625	7424.0	0.0	0.0	
-0.8091603053435115	-30.0	0.4580152671755725	53.0	2.213740458015267	-145.0	0.3734939759036145	1287.0	9.156626506024097	2016.0	-0.16867469879518074	2061.0	-0.4209090909090909	463.0	-0.01090909090909091	-12.0	-0.22653061224489798	222.0	1.522892616547875E12	1.522892616557E12	2230.46875	7552.0	0.0	0.0	
-0.6412213740458015	-45.0	0.6870229007633587	42.0	1.984732824427481	-130.0	0.3855421686746988	1284.0	9.19277108433735	2015.0	-0.24096385542168675	2067.0	-0.4209090909090909	463.0	-0.01090909090909091	-12.0	-0.22653061224489798	222.0	1.5228926165517813E12	1.522892616558E12	2234.375	7680.0	0.0	0.0	
-0.9465648854961831	-49.0	0.7480916030534351	62.0	1.9541984732824427	-128.0	0.42168674698795183	1282.0	9.216867469879519	2012.0	-0.2530120481927711	2068.0	-0.42272727272727273	465.0	-0.026363636363636363	-29.0	-0.22755102040816327	223.0	1.5228926165556875E12	1.52289261656E12	2238.28125	7808.0	0.0	0.0	
-1.083969465648855	-51.0	0.7786259541984732	71.0	1.7862595419847327	-117.0	0.3734939759036145	1283.0	9.204819277108435	2016.0	-0.30120481927710846	2072.0	-0.42	462.0	-0.02181818181818182	-24.0	-0.2306122448979592	226.0	1.5228926165595938E12	1.522892616574E12	2242.1875	7936.0	0.0	0.0	
-1.1755725190839694	-47.0	0.7175572519083969	77.0	1.8015267175572518	-118.0	0.30120481927710846	1282.0	9.216867469879519	2022.0	-0.30120481927710846	2072.0	-0.41909090909090907	461.0	-0.01	-11.0	-0.22551020408163266	221.0	1.5228926165635E12	1.522892616575E12	2246.09375	8064.0	0.0	0.0	
-0.9312977099236641	-45.0	0.6870229007633587	61.0	1.7251908396946565	-113.0	0.30120481927710846	1284.0	9.19277108433735	2022.0	-0.3132530120481928	2073.0	-0.42272727272727273	465.0	-0.028181818181818183	-31.0	-0.22653061224489798	222.0	1.5228926165674063E12	1.522892616576E12	2250.0	8192.0	0.0	0.0	
-1.3129770992366412	-48.0	0.732824427480916	86.0	1.648854961832061	-108.0	0.30120481927710846	1284.0	9.19277108433735	2022.0	-0.30120481927710846	2072.0	-0.4163636363636364	458.0	-0.01818181818181818	-20.0	-0.21938775510204084	215.0	1.5228926165713125E12	1.522892616589E12	2253.90625	8320.0	0.0	0.0	
-1.0534351145038168	-60.0	0.916030534351145	69.0	1.66412213740458	-109.0	0.3253012048192771	1284.0	9.19277108433735	2020.0	-0.2530120481927711	2068.0	-0.4209090909090909	463.0	-0.014545454545454545	-16.0	-0.22653061224489798	222.0	1.5228926165752188E12	1.52289261659E12	2257.8125	8448.0	0.0	0.0	
-1.2061068702290076	-64.0	0.9770992366412213	79.0	1.648854961832061	-108.0	0.3493975903614458	1283.0	9.204819277108435	2018.0	-0.24096385542168675	2067.0	-0.4209090909090909	463.0	-0.014545454545454545	-16.0	-0.22653061224489798	222.0	1.522892616579125E12	1.522892616591E12	2261.71875	8576.0	0.0	0.0	
-1.3893129770992365	-74.0	1.129770992366412	91.0	1.648854961832061	-108.0	0.3493975903614458	1285.0	9.180722891566266	2018.0	-0.2530120481927711	2068.0	-0.42454545454545456	467.0	-0.026363636363636363	-29.0	-0.22346938775510206	219.0	1.5228926165830313E12	1.522892616593E12	2265.625	8704.0	0.0	0.0	
-1.465648854961832	-78.0	1.1908396946564885	96.0	1.4045801526717556	-92.0	0.27710843373493976	1285.0	9.180722891566266	2024.0	-0.2530120481927711	2068.0	-0.4172727272727273	459.0	-0.026363636363636363	-29.0	-0.23163265306122452	227.0	1.5228926165869375E12	1.522892616594E12	2269.53125	8832.0	0.0	0.0	
-1.6030534351145038	-64.0	0.9770992366412213	105.0	1.3740458015267174	-90.0	0.27710843373493976	1284.0	9.19277108433735	2024.0	-0.26506024096385544	2069.0	-0.42272727272727273	465.0	-0.01818181818181818	-20.0	-0.22448979591836737	220.0	1.5228926165908438E12	1.522892616595E12	2273.4375	8960.0	0.0	0.0	
-1.66412213740458	-79.0	1.2061068702290076	109.0	1.5725190839694656	-103.0	0.27710843373493976	1284.0	9.19277108433735	2024.0	-0.2530120481927711	2068.0	-0.42363636363636364	466.0	-0.026363636363636363	-29.0	-0.22653061224489798	222.0	1.52289261659475E12	1.522892616605E12	2277.34375	9088.0	0.0	0.0	
-1.7862595419847327	-70.0	1.0687022900763359	117.0	1.4961832061068703	-98.0	0.30120481927710846	1284.0	9.19277108433735	2022.0	-0.22891566265060243	2066.0	-0.41818181818181815	460.0	-0.026363636363636363	-29.0	-0.23163265306122452	227.0	1.5228926165986563E12	1.522892616606E12	2281.25	9216.0	0.0	0.0	
-1.7404580152671756	-90.0	1.3740458015267174	114.0	1.2519083969465647	-82.0	0.30120481927710846	1286.0	9.168674698795181	2022.0	-0.22891566265060243	2066.0	-0.41454545454545455	456.0	-0.028181818181818183	-31.0	-0.22448979591836737	220.0	1.5228926166025625E12	1.522892616608E12	2285.15625	9344.0	0.0	0.0	
-1.66412213740458	-74.0	1.129770992366412	109.0	1.3587786259541985	-89.0	0.26506024096385544	1285.0	9.180722891566266	2025.0	-0.24096385542168675	2067.0	-0.41454545454545455	456.0	-0.028181818181818183	-31.0	-0.22448979591836737	220.0	1.5228926166064688E12	1.522892616648E12	2289.0625	9472.0	0.0	0.0	
-1.618320610687023	-86.0	1.3129770992366412	106.0	1.2519083969465647	-82.0	0.20481927710843376	1284.0	9.19277108433735	2030.0	-0.2530120481927711	2068.0	-0.4254545454545455	468.0	-0.023636363636363636	-26.0	-0.22755102040816327	223.0	1.522892616610375E12	1.52289261665E12	2292.96875	9600.0	0.0	0.0	
-1.5877862595419847	-77.0	1.1755725190839694	104.0	1.6335877862595418	-107.0	0.1927710843373494	1283.0	9.204819277108435	2031.0	-0.27710843373493976	2070.0	-0.4163636363636364	458.0	-0.025454545454545455	-28.0	-0.23163265306122452	227.0	1.5228926166142813E12	1.522892616651E12	2296.875	9728.0	0.0	0.0	
-2.198473282442748	-89.0	1.3587786259541985	144.0	1.3435114503816794	-88.0	0.21686746987951808	1282.0	9.216867469879519	2029.0	-0.3132530120481928	2073.0	-0.42272727272727273	465.0	-0.019090909090909092	-21.0	-0.22448979591836737	220.0	1.5228926166181875E12	1.522892616651E12	2300.78125	9856.0	0.0	0.0	
-2.1068702290076335	-60.0	0.916030534351145	138.0	1.450381679389313	-95.0	0.21686746987951808	1284.0	9.19277108433735	2029.0	-0.26506024096385544	2069.0	-0.41818181818181815	460.0	-0.016363636363636365	-18.0	-0.2295918367346939	225.0	1.5228926166220938E12	1.522892616653E12	2304.6875	9984.0	0.0	0.0	
-2.381679389312977	-87.0	1.3282442748091603	156.0	1.2366412213740459	-81.0	0.16867469879518074	1285.0	9.180722891566266	2033.0	-0.14457831325301207	2059.0	-0.4163636363636364	458.0	-0.025454545454545455	-28.0	-0.2306122448979592	226.0	1.522892616626E12	1.522892616654E12	2308.59375	10112.0	0.0	0.0	
-2.549618320610687	-105.0	1.6030534351145038	167.0	1.3129770992366412	-86.0	0.10843373493975904	1285.0	9.180722891566266	2038.0	-0.0963855421686747	2055.0	-0.4218181818181818	464.0	-0.016363636363636365	-18.0	-0.22653061224489798	222.0	1.5228926166299063E12	1.522892616654E12	2312.5	10240.0	0.0	0.0	
-2.1374045801526718	-114.0	1.7404580152671756	140.0	1.3893129770992365	-91.0	0.0963855421686747	1284.0	9.19277108433735	2039.0	-0.14457831325301207	2059.0	-0.4218181818181818	464.0	-0.016363636363636365	-18.0	-0.22653061224489798	222.0	1.5228926166338125E12	1.522892616655E12	2316.40625	10368.0	0.0	0.0	
-2.351145038167939	-103.0	1.5725190839694656	154.0	1.4351145038167938	-94.0	0.10843373493975904	1283.0	9.204819277108435	2038.0	-0.14457831325301207	2059.0	-0.42	462.0	-0.025454545454545455	-28.0	-0.2285714285714286	224.0	1.5228926166377188E12	1.522892616656E12	2320.3125	10496.0	0.0	0.0	
-2.5038167938931295	-98.0	1.4961832061068703	164.0	1.297709923664122	-85.0	0.0963855421686747	1285.0	9.180722891566266	2039.0	-0.0963855421686747	2055.0	-0.41909090909090907	461.0	-0.019090909090909092	-21.0	-0.2285714285714286	224.0	1.522892616641625E12	1.522892616657E12	2324.21875	10624.0	0.0	0.0	
-2.4732824427480917	-82.0	1.2519083969465647	162.0	1.4961832061068703	-98.0	0.08433734939759037	1286.0	9.168674698795181	2040.0	-0.08433734939759037	2054.0	-0.42363636363636364	466.0	-0.016363636363636365	-18.0	-0.22653061224489798	222.0	1.5228926166455313E12	1.522892616658E12	2328.125	10752.0	0.0	0.0	
-2.519083969465649	-92.0	1.4045801526717556	165.0	1.465648854961832	-96.0	0.08433734939759037	1284.0	9.19277108433735	2040.0	-0.10843373493975904	2056.0	-0.42272727272727273	465.0	-0.023636363636363636	-26.0	-0.2295918367346939	225.0	1.5228926166494375E12	1.522892616659E12	2332.03125	10880.0	0.0	0.0	
-2.6412213740458013	-94.0	1.4351145038167938	173.0	1.3435114503816794	-88.0	0.04819277108433735	1283.0	9.204819277108435	2043.0	-0.08433734939759037	2054.0	-0.4163636363636364	458.0	-0.015454545454545455	-17.0	-0.22653061224489798	222.0	1.5228926166533438E12	1.52289261666E12	2335.9375	11008.0	0.0	0.0	
-2.931297709923664	-88.0	1.3435114503816794	192.0	1.5572519083969465	-102.0	-0.012048192771084338	1284.0	9.19277108433735	2048.0	-0.03614457831325302	2050.0	-0.4163636363636364	458.0	-0.019090909090909092	-21.0	-0.2285714285714286	224.0	1.52289261665725E12	1.522892616661E12	2339.84375	11136.0	0.0	0.0	
-2.7022900763358777	-76.0	1.1603053435114503	177.0	1.4045801526717556	-92.0	-0.060240963855421686	1284.0	9.19277108433735	2052.0	0.024096385542168676	2045.0	-0.4218181818181818	464.0	-0.019090909090909092	-21.0	-0.2285714285714286	224.0	1.5228926166611563E12	1.522892616662E12	2343.75	11264.0	0.0	0.0	
-2.6412213740458013	-53.0	0.8091603053435115	173.0	1.6030534351145038	-105.0	-0.024096385542168676	1286.0	9.168674698795181	2049.0	0.08433734939759037	2040.0	-0.41909090909090907	461.0	-0.01818181818181818	-20.0	-0.22448979591836737	220.0	1.5228926166650625E12	1.522892616677E12	2347.65625	11392.0	0.0	0.0	
-2.4885496183206106	-52.0	0.7938931297709924	163.0	1.648854961832061	-108.0	0.04819277108433735	1286.0	9.168674698795181	2043.0	0.10843373493975904	2038.0	-0.42	462.0	-0.016363636363636365	-18.0	-0.2285714285714286	224.0	1.5228926166689688E12	1.522892616678E12	2351.5625	11520.0	0.0	0.0	
-2.427480916030534	-65.0	0.9923664122137404	159.0	1.5725190839694656	-103.0	0.07228915662650603	1284.0	9.19277108433735	2041.0	0.14457831325301207	2035.0	-0.42272727272727273	465.0	-0.019090909090909092	-21.0	-0.22346938775510206	219.0	1.522892616672875E12	1.522892616679E12	2355.46875	11648.0	0.0	0.0	
-2.4122137404580153	-50.0	0.7633587786259541	158.0	1.4961832061068703	-98.0	0.04819277108433735	1284.0	9.19277108433735	2043.0	0.14457831325301207	2035.0	-0.42	462.0	-0.02090909090909091	-23.0	-0.22346938775510206	219.0	1.5228926166767813E12	1.522892616692E12	2359.375	11776.0	0.0	0.0	
-2.1526717557251906	-57.0	0.8702290076335878	141.0	1.6030534351145038	-105.0	0.07228915662650603	1283.0	9.204819277108435	2041.0	0.08433734939759037	2040.0	-0.41818181818181815	460.0	-0.011818181818181818	-13.0	-0.22448979591836737	220.0	1.5228926166806875E12	1.522892616693E12	2363.28125	11904.0	0.0	0.0	
-2.5801526717557253	-42.0	0.6412213740458015	169.0	1.6793893129770991	-110.0	0.0963855421686747	1285.0	9.180722891566266	2039.0	0.07228915662650603	2041.0	-0.41818181818181815	460.0	-0.011818181818181818	-13.0	-0.22448979591836737	220.0	1.5228926166845938E12	1.522892616694E12	2367.1875	12032.0	0.0	0.0	
-2.5801526717557253	-29.0	0.4427480916030534	169.0	1.648854961832061	-108.0	0.16867469879518074	1287.0	9.156626506024097	2033.0	0.13253012048192772	2036.0	-0.42363636363636364	466.0	-0.02181818181818182	-24.0	-0.2285714285714286	224.0	1.5228926166885E12	1.522892616696E12	2371.09375	12160.0	0.0	0.0	
-2.4732824427480917	-27.0	0.41221374045801523	162.0	1.6793893129770991	-110.0	0.27710843373493976	1286.0	9.168674698795181	2024.0	0.14457831325301207	2035.0	-0.41909090909090907	461.0	-0.023636363636363636	-26.0	-0.22142857142857145	217.0	1.5228926166924063E12	1.522892616697E12	2375.0	12288.0	0.0	0.0	
-2.564885496183206	-39.0	0.5954198473282443	168.0	1.7099236641221374	-112.0	0.3614457831325301	1284.0	9.19277108433735	2017.0	0.13253012048192772	2036.0	-0.42	462.0	-0.012727272727272728	-14.0	-0.2285714285714286	224.0	1.5228926166963125E12	1.522892616698E12	2378.90625	12416.0	0.0	0.0	
-2.427480916030534	-41.0	0.6259541984732824	159.0	1.5877862595419847	-104.0	0.3855421686746988	1285.0	9.180722891566266	2015.0	0.13253012048192772	2036.0	-0.42363636363636364	466.0	-0.02	-22.0	-0.22551020408163266	221.0	1.5228926167002188E12	1.522892616708E12	2382.8125	12544.0	0.0	0.0	
-2.2442748091603053	-61.0	0.9312977099236641	147.0	1.4809160305343512	-97.0	0.44578313253012053	1285.0	9.180722891566266	2010.0	0.0963855421686747	2039.0	-0.42272727272727273	465.0	-0.024545454545454544	-27.0	-0.22755102040816327	223.0	1.522892616704125E12	1.522892616709E12	2386.71875	12672.0	0.0	0.0	
-2.1068702290076335	-46.0	0.7022900763358778	138.0	1.4198473282442747	-93.0	0.5060240963855422	1284.0	9.19277108433735	2005.0	0.03614457831325302	2044.0	-0.41818181818181815	460.0	-0.014545454545454545	-16.0	-0.2295918367346939	225.0	1.5228926167080313E12	1.52289261671E12	2390.625	12800.0	0.0	0.0	
-2.0610687022900764	-65.0	0.9923664122137404	135.0	1.3587786259541985	-89.0	0.5301204819277109	1281.0	9.228915662650603	2003.0	-0.024096385542168676	2049.0	-0.41818181818181815	460.0	-0.014545454545454545	-16.0	-0.2295918367346939	225.0	1.5228926167119375E12	1.522892616726E12	2394.53125	12928.0	0.0	0.0	
-2.3206106870229006	-77.0	1.1755725190839694	152.0	1.0229007633587786	-67.0	0.4819277108433735	1282.0	9.216867469879519	2007.0	-0.024096385542168676	2049.0	-0.4218181818181818	464.0	-0.025454545454545455	-28.0	-0.2285714285714286	224.0	1.5228926167158438E12	1.522892616727E12	2398.4375	13056.0	0.0	0.0	
-2.4885496183206106	-80.0	1.2213740458015268	163.0	1.0076335877862594	-66.0	0.43373493975903615	1282.0	9.216867469879519	2011.0	-0.012048192771084338	2048.0	-0.4209090909090909	463.0	-0.02909090909090909	-32.0	-0.2306122448979592	226.0	1.52289261671975E12	1.522892616728E12	2402.34375	13184.0	0.0	0.0	
-2.2748091603053435	-97.0	1.4809160305343512	149.0	0.8549618320610687	-56.0	0.4096385542168675	1282.0	9.216867469879519	2013.0	0.0	2047.0	-0.4090909090909091	450.0	-0.022727272727272728	-25.0	-0.2285714285714286	224.0	1.5228926167236563E12	1.522892616743E12	2406.25	13312.0	0.0	0.0	
-2.6412213740458013	-104.0	1.5877862595419847	173.0	0.8854961832061068	-58.0	0.3614457831325301	1284.0	9.19277108433735	2017.0	0.024096385542168676	2045.0	-0.41818181818181815	460.0	-0.02727272727272727	-30.0	-0.22653061224489798	222.0	1.5228926167275625E12	1.522892616744E12	2410.15625	13440.0	0.0	0.0	
-2.4122137404580153	-114.0	1.7404580152671756	158.0	0.7786259541984732	-51.0	0.3253012048192771	1284.0	9.19277108433735	2020.0	0.024096385542168676	2045.0	-0.41909090909090907	461.0	-0.02727272727272727	-30.0	-0.2306122448979592	226.0	1.5228926167314688E12	1.522892616745E12	2414.0625	13568.0	0.0	0.0	
-2.3664122137404577	-110.0	1.6793893129770991	155.0	0.7938931297709924	-52.0	0.30120481927710846	1283.0	9.204819277108435	2022.0	0.03614457831325302	2044.0	-0.41909090909090907	461.0	-0.01090909090909091	-12.0	-0.2285714285714286	224.0	1.522892616735375E12	1.522892616747E12	2417.96875	13696.0	0.0	0.0	
-2.564885496183206	-113.0	1.7251908396946565	168.0	0.8702290076335878	-57.0	0.27710843373493976	1283.0	9.204819277108435	2024.0	0.04819277108433735	2043.0	-0.41909090909090907	461.0	-0.01090909090909091	-12.0	-0.2285714285714286	224.0	1.5228926167392813E12	1.522892616749E12	2421.875	13824.0	0.0	0.0	
-2.2442748091603053	-115.0	1.7557251908396947	147.0	0.5801526717557252	-38.0	0.22891566265060243	1284.0	9.19277108433735	2028.0	0.04819277108433735	2043.0	-0.41363636363636364	455.0	-0.008181818181818182	-9.0	-0.23163265306122452	227.0	1.5228926167431875E12	1.522892616751E12	2425.78125	13952.0	0.0	0.0	
-2.351145038167939	-118.0	1.8015267175572518	154.0	0.5954198473282443	-39.0	0.20481927710843376	1284.0	9.19277108433735	2030.0	0.07228915662650603	2041.0	-0.4163636363636364	458.0	-0.026363636363636363	-29.0	-0.2295918367346939	225.0	1.5228926167470938E12	1.522892616757E12	2429.6875	14080.0	0.0	0.0	
-2.610687022900763	-130.0	1.984732824427481	171.0	0.8549618320610687	-56.0	0.14457831325301207	1284.0	9.19277108433735	2035.0	0.07228915662650603	2041.0	-0.4172727272727273	459.0	-0.014545454545454545	-16.0	-0.2306122448979592	226.0	1.522892616751E12	1.522892616758E12	2433.59375	14208.0	0.0	0.0	
-2.610687022900763	-129.0	1.9694656488549618	171.0	0.6717557251908397	-44.0	0.0963855421686747	1284.0	9.19277108433735	2039.0	0.10843373493975904	2038.0	-0.4209090909090909	463.0	-0.028181818181818183	-31.0	-0.22653061224489798	222.0	1.5228926167549063E12	1.522892616759E12	2437.5	14336.0	0.0	0.0	
-2.595419847328244	-133.0	2.030534351145038	170.0	0.6412213740458015	-42.0	0.060240963855421686	1284.0	9.19277108433735	2042.0	0.18072289156626506	2032.0	-0.4172727272727273	459.0	-0.023636363636363636	-26.0	-0.2326530612244898	228.0	1.5228926167588125E12	1.52289261679E12	2441.40625	14464.0	0.0	0.0	
-2.6717557251908395	-124.0	1.8931297709923662	175.0	0.6870229007633587	-45.0	0.024096385542168676	1285.0	9.180722891566266	2045.0	0.20481927710843376	2030.0	-0.41909090909090907	461.0	-0.01	-11.0	-0.22755102040816327	223.0	1.5228926167627188E12	1.522892616791E12	2445.3125	14592.0	0.0	0.0	
-2.5801526717557253	-131.0	2.0	169.0	0.6870229007633587	-45.0	-0.012048192771084338	1286.0	9.168674698795181	2048.0	0.30120481927710846	2022.0	-0.41909090909090907	461.0	-0.01	-11.0	-0.22755102040816327	223.0	1.522892616766625E12	1.522892616792E12	2449.21875	14720.0	0.0	0.0	
-2.6412213740458013	-131.0	2.0	173.0	0.7480916030534351	-49.0	-0.024096385542168676	1285.0	9.180722891566266	2049.0	0.3253012048192771	2020.0	-0.4209090909090909	463.0	-0.026363636363636363	-29.0	-0.2295918367346939	225.0	1.5228926167705313E12	1.522892616793E12	2453.125	14848.0	0.0	0.0	
-2.5801526717557253	-130.0	1.984732824427481	169.0	1.099236641221374	-72.0	-0.024096385542168676	1288.0	9.144578313253012	2049.0	0.3493975903614458	2018.0	-0.41909090909090907	461.0	-0.022727272727272728	-25.0	-0.2326530612244898	228.0	1.5228926167744375E12	1.522892616793E12	2457.03125	14976.0	0.0	0.0	
-2.717557251908397	-128.0	1.9541984732824427	178.0	1.114503816793893	-73.0	0.03614457831325302	1285.0	9.180722891566266	2044.0	0.3493975903614458	2018.0	-0.41454545454545455	456.0	-0.011818181818181818	-13.0	-0.22551020408163266	221.0	1.5228926167783438E12	1.522892616794E12	2460.9375	15104.0	0.0	0.0	
-2.4122137404580153	-106.0	1.618320610687023	158.0	1.2671755725190839	-83.0	0.07228915662650603	1286.0	9.168674698795181	2041.0	0.3855421686746988	2015.0	-0.41454545454545455	456.0	-0.02	-22.0	-0.22755102040816327	223.0	1.52289261678225E12	1.5228926168E12	2464.84375	15232.0	0.0	0.0	
-2.6412213740458013	-108.0	1.648854961832061	173.0	0.9312977099236641	-61.0	0.060240963855421686	1285.0	9.180722891566266	2042.0	0.39759036144578314	2014.0	-0.4127272727272727	454.0	-0.013636363636363636	-15.0	-0.23163265306122452	227.0	1.5228926167861563E12	1.522892616801E12	2468.75	15360.0	0.0	0.0	
-2.351145038167939	-91.0	1.3893129770992365	154.0	1.0687022900763359	-70.0	0.08433734939759037	1286.0	9.168674698795181	2040.0	0.39759036144578314	2014.0	-0.42	462.0	-0.012727272727272728	-14.0	-0.22244897959183677	218.0	1.5228926167900625E12	1.522892616802E12	2472.65625	15488.0	0.0	0.0	
-2.1221374045801524	-87.0	1.3282442748091603	139.0	1.282442748091603	-84.0	0.12048192771084337	1285.0	9.180722891566266	2037.0	0.3734939759036145	2016.0	-0.42	462.0	-0.012727272727272728	-14.0	-0.22244897959183677	218.0	1.5228926167939688E12	1.522892616803E12	2476.5625	15616.0	0.0	0.0	
-2.1221374045801524	-85.0	1.297709923664122	139.0	0.8549618320610687	-56.0	0.13253012048192772	1284.0	9.19277108433735	2036.0	0.3493975903614458	2018.0	-0.41454545454545455	456.0	-0.02	-22.0	-0.23163265306122452	227.0	1.522892616797875E12	1.522892616804E12	2480.46875	15744.0	0.0	0.0	
-2.1526717557251906	-94.0	1.4351145038167938	141.0	0.9770992366412213	-64.0	0.0963855421686747	1283.0	9.204819277108435	2039.0	0.3493975903614458	2018.0	-0.41454545454545455	456.0	-0.006363636363636364	-7.0	-0.22653061224489798	222.0	1.5228926168017813E12	1.522892616805E12	2484.375	15872.0	0.0	0.0	
-1.984732824427481	-76.0	1.1603053435114503	130.0	1.099236641221374	-72.0	0.03614457831325302	1283.0	9.204819277108435	2044.0	0.3253012048192771	2020.0	-0.4118181818181818	453.0	-0.023636363636363636	-26.0	-0.22755102040816327	223.0	1.5228926168056875E12	1.522892616815E12	2488.28125	16000.0	0.0	0.0	
-2.1221374045801524	-80.0	1.2213740458015268	139.0	0.9312977099236641	-61.0	0.03614457831325302	1283.0	9.204819277108435	2044.0	0.3253012048192771	2020.0	-0.41818181818181815	460.0	-0.025454545454545455	-28.0	-0.2306122448979592	226.0	1.5228926168095938E12	1.522892616822E12	2492.1875	16128.0	0.0	0.0	
-1.9541984732824427	-83.0	1.2671755725190839	128.0	0.9465648854961831	-62.0	0.024096385542168676	1283.0	9.204819277108435	2045.0	0.3373493975903615	2019.0	-0.41818181818181815	460.0	-0.02181818181818182	-24.0	-0.22551020408163266	221.0	1.5228926168135E12	1.522892616823E12	2496.09375	16256.0	0.0	0.0	
-2.091603053435114	-73.0	1.114503816793893	137.0	1.0381679389312977	-68.0	0.024096385542168676	1285.0	9.180722891566266	2045.0	0.3734939759036145	2016.0	-0.4118181818181818	453.0	-0.026363636363636363	-29.0	-0.22755102040816327	223.0	1.5228926168174063E12	1.522892616823E12	2500.0	16384.0	0.0	0.0	
-2.0	-81.0	1.2366412213740459	131.0	1.1755725190839694	-77.0	0.0	1285.0	9.180722891566266	2047.0	0.3734939759036145	2016.0	-0.4118181818181818	453.0	-0.026363636363636363	-29.0	-0.22755102040816327	223.0	1.5228926168213125E12	1.522892616839E12	2503.90625	16512.0	0.0	0.0	
-2.1374045801526718	-64.0	0.9770992366412213	140.0	1.1450381679389312	-75.0	0.0	1284.0	9.19277108433735	2047.0	0.39759036144578314	2014.0	-0.4209090909090909	463.0	-0.025454545454545455	-28.0	-0.23163265306122452	227.0	1.5228926168252188E12	1.522892616839E12	2507.8125	16640.0	0.0	0.0	
-2.1221374045801524	-55.0	0.8396946564885496	139.0	1.465648854961832	-96.0	0.012048192771084338	1285.0	9.180722891566266	2046.0	0.43373493975903615	2011.0	-0.4163636363636364	458.0	-0.019090909090909092	-21.0	-0.2306122448979592	226.0	1.522892616829125E12	1.522892616839E12	2511.71875	16768.0	0.0	0.0	
-1.618320610687023	-57.0	0.8702290076335878	106.0	1.4351145038167938	-94.0	-0.012048192771084338	1286.0	9.168674698795181	2048.0	0.45783132530120485	2009.0	-0.4209090909090909	463.0	-0.01818181818181818	-20.0	-0.2295918367346939	225.0	1.5228926168330313E12	1.522892616854E12	2515.625	16896.0	0.0	0.0	
-1.6335877862595418	-40.0	0.6106870229007634	107.0	1.3435114503816794	-88.0	0.060240963855421686	1284.0	9.19277108433735	2042.0	0.43373493975903615	2011.0	-0.4218181818181818	464.0	-0.026363636363636363	-29.0	-0.2326530612244898	228.0	1.5228926168369375E12	1.522892616854E12	2519.53125	17024.0	0.0	0.0	
-1.7251908396946565	-31.0	0.47328244274809156	113.0	1.297709923664122	-85.0	0.0963855421686747	1284.0	9.19277108433735	2039.0	0.43373493975903615	2011.0	-0.41363636363636364	455.0	-0.01	-11.0	-0.22755102040816327	223.0	1.5228926168408438E12	1.522892616855E12	2523.4375	17152.0	0.0	0.0	
-1.3893129770992365	-33.0	0.5038167938931297	91.0	1.0687022900763359	-70.0	0.04819277108433735	1285.0	9.180722891566266	2043.0	0.43373493975903615	2011.0	-0.41363636363636364	455.0	-0.016363636363636365	-18.0	-0.22755102040816327	223.0	1.52289261684475E12	1.522892616857E12	2527.34375	17280.0	0.0	0.0	
-1.5572519083969465	-39.0	0.5954198473282443	102.0	1.2366412213740459	-81.0	-0.012048192771084338	1284.0	9.19277108433735	2048.0	0.42168674698795183	2012.0	-0.4209090909090909	463.0	-0.016363636363636365	-18.0	-0.22755102040816327	223.0	1.5228926168486563E12	1.522892616858E12	2531.25	17408.0	0.0	0.0	
-1.5267175572519083	-26.0	0.3969465648854962	100.0	1.114503816793893	-73.0	-0.012048192771084338	1285.0	9.180722891566266	2048.0	0.43373493975903615	2011.0	-0.41545454545454547	457.0	-0.008181818181818182	-9.0	-0.22755102040816327	223.0	1.5228926168525625E12	1.522892616858E12	2535.15625	17536.0	0.0	0.0	
-1.3893129770992365	-32.0	0.48854961832061067	91.0	1.282442748091603	-84.0	-0.060240963855421686	1285.0	9.180722891566266	2052.0	0.46987951807228917	2008.0	-0.41454545454545455	456.0	-0.013636363636363636	-15.0	-0.23367346938775513	229.0	1.5228926168564688E12	1.522892616865E12	2539.0625	17664.0	0.0	0.0	
-1.4809160305343512	-24.0	0.366412213740458	97.0	1.5114503816793892	-99.0	-0.060240963855421686	1285.0	9.180722891566266	2052.0	0.5060240963855422	2005.0	-0.42272727272727273	465.0	-0.017272727272727273	-19.0	-0.22755102040816327	223.0	1.522892616860375E12	1.522892616866E12	2542.96875	17792.0	0.0	0.0	
-1.1908396946564885	-19.0	0.2900763358778626	78.0	1.4809160305343512	-97.0	-0.024096385542168676	1284.0	9.19277108433735	2049.0	0.49397590361445787	2006.0	-0.41818181818181815	460.0	-0.02181818181818182	-24.0	-0.23367346938775513	229.0	1.5228926168642813E12	1.522892616867E12	2546.875	17920.0	0.0	0.0	
-1.2366412213740459	-26.0	0.3969465648854962	81.0	1.5267175572519083	-100.0	-0.024096385542168676	1285.0	9.180722891566266	2049.0	0.4819277108433735	2007.0	-0.41909090909090907	461.0	-0.012727272727272728	-14.0	-0.2306122448979592	226.0	1.5228926168681875E12	1.522892616878E12	2550.78125	18048.0	0.0	0.0	
-0.9465648854961831	-22.0	0.33587786259541985	62.0	1.3435114503816794	-88.0	-0.03614457831325302	1285.0	9.180722891566266	2050.0	0.4819277108433735	2007.0	-0.41909090909090907	461.0	-0.012727272727272728	-14.0	-0.2306122448979592	226.0	1.5228926168720938E12	1.522892616879E12	2554.6875	18176.0	0.0	0.0	
-1.0229007633587786	-1.0	0.015267175572519083	67.0	1.450381679389313	-95.0	-0.04819277108433735	1285.0	9.180722891566266	2051.0	0.46987951807228917	2008.0	-0.4218181818181818	464.0	-0.017272727272727273	-19.0	-0.22755102040816327	223.0	1.522892616876E12	1.522892616879E12	2558.59375	18304.0	0.0	0.0	
-0.9923664122137404	-17.0	0.2595419847328244	65.0	1.4198473282442747	-93.0	-0.03614457831325302	1284.0	9.19277108433735	2050.0	0.44578313253012053	2010.0	-0.4209090909090909	463.0	-0.019090909090909092	-21.0	-0.22755102040816327	223.0	1.5228926168799063E12	1.522892616893E12	2562.5	18432.0	0.0	0.0	
-0.9618320610687022	-2.0	0.030534351145038167	63.0	1.648854961832061	-108.0	-0.024096385542168676	1284.0	9.19277108433735	2049.0	0.42168674698795183	2012.0	-0.41545454545454547	457.0	-0.015454545454545455	-17.0	-0.2306122448979592	226.0	1.5228926168838125E12	1.522892616894E12	2566.40625	18560.0	0.0	0.0	
-0.7480916030534351	-2.0	0.030534351145038167	49.0	1.5725190839694656	-103.0	0.0	1284.0	9.19277108433735	2047.0	0.4096385542168675	2013.0	-0.4209090909090909	463.0	-0.019090909090909092	-21.0	-0.22653061224489798	222.0	1.5228926168877188E12	1.522892616895E12	2570.3125	18688.0	0.0	0.0	
-0.916030534351145	0.0	0.0	60.0	1.4351145038167938	-94.0	0.0	1285.0	9.180722891566266	2047.0	0.39759036144578314	2014.0	-0.41909090909090907	461.0	-0.00909090909090909	-10.0	-0.22755102040816327	223.0	1.522892616891625E12	1.522892616907E12	2574.21875	18816.0	0.0	0.0	
-0.7633587786259541	1.0	-0.015267175572519083	50.0	1.465648854961832	-96.0	-0.024096385542168676	1284.0	9.19277108433735	2049.0	0.39759036144578314	2014.0	-0.41818181818181815	460.0	-0.012727272727272728	-14.0	-0.2295918367346939	225.0	1.5228926168955313E12	1.522892616908E12	2578.125	18944.0	0.0	0.0	
-0.6870229007633587	-2.0	0.030534351145038167	45.0	1.5725190839694656	-103.0	-0.024096385542168676	1285.0	9.180722891566266	2049.0	0.3734939759036145	2016.0	-0.41818181818181815	460.0	-0.012727272727272728	-14.0	-0.2295918367346939	225.0	1.5228926168994375E12	1.522892616909E12	2582.03125	19072.0	0.0	0.0	
-0.7022900763358778	0.0	0.0	46.0	1.6793893129770991	-110.0	-0.012048192771084338	1283.0	9.204819277108435	2048.0	0.3493975903614458	2018.0	-0.4209090909090909	463.0	-0.02181818181818182	-24.0	-0.22448979591836737	220.0	1.5228926169033438E12	1.522892616941E12	2585.9375	19200.0	0.0	0.0	
-0.366412213740458	-10.0	0.15267175572519084	24.0	1.5877862595419847	-104.0	0.0	1284.0	9.19277108433735	2047.0	0.3373493975903615	2019.0	-0.42	462.0	-0.02	-22.0	-0.22448979591836737	220.0	1.52289261690725E12	1.522892616942E12	2589.84375	19328.0	0.0	0.0	
-0.549618320610687	-7.0	0.10687022900763359	36.0	1.9083969465648853	-125.0	0.012048192771084338	1285.0	9.180722891566266	2046.0	0.3734939759036145	2016.0	-0.41545454545454547	457.0	-0.008181818181818182	-9.0	-0.2285714285714286	224.0	1.5228926169111563E12	1.522892616943E12	2593.75	19456.0	0.0	0.0	
-0.6106870229007634	-19.0	0.2900763358778626	40.0	1.7709923664122136	-116.0	0.024096385542168676	1285.0	9.180722891566266	2045.0	0.3855421686746988	2015.0	-0.42272727272727273	465.0	-0.024545454545454544	-27.0	-0.22755102040816327	223.0	1.5228926169150625E12	1.522892616944E12	2597.65625	19584.0	0.0	0.0	
-0.48854961832061067	-8.0	0.12213740458015267	32.0	1.9541984732824427	-128.0	0.03614457831325302	1285.0	9.180722891566266	2044.0	0.3855421686746988	2015.0	-0.4218181818181818	464.0	-0.028181818181818183	-31.0	-0.23367346938775513	229.0	1.5228926169189688E12	1.522892616945E12	2601.5625	19712.0	0.0	0.0	
-0.5038167938931297	-13.0	0.1984732824427481	33.0	1.8931297709923662	-124.0	0.060240963855421686	1285.0	9.180722891566266	2042.0	0.4096385542168675	2013.0	-0.4172727272727273	459.0	-0.016363636363636365	-18.0	-0.23367346938775513	229.0	1.522892616922875E12	1.522892616945E12	2605.46875	19840.0	0.0	0.0	
-0.47328244274809156	12.0	-0.183206106870229	31.0	1.7099236641221374	-112.0	0.10843373493975904	1285.0	9.180722891566266	2038.0	0.39759036144578314	2014.0	-0.4172727272727273	459.0	-0.016363636363636365	-18.0	-0.23367346938775513	229.0	1.5228926169267813E12	1.522892616947E12	2609.375	19968.0	0.0	0.0	
-0.42748091603053434	8.0	-0.12213740458015267	28.0	1.83206106870229	-120.0	0.14457831325301207	1285.0	9.180722891566266	2035.0	0.3734939759036145	2016.0	-0.4218181818181818	464.0	-0.024545454545454544	-27.0	-0.2306122448979592	226.0	1.5228926169306875E12	1.522892616948E12	2613.28125	20096.0	0.0	0.0	
-0.0916030534351145	5.0	-0.07633587786259542	6.0	1.5877862595419847	-104.0	0.13253012048192772	1283.0	9.204819277108435	2036.0	0.3734939759036145	2016.0	-0.4218181818181818	464.0	-0.024545454545454544	-27.0	-0.23469387755102042	230.0	1.5228926169345938E12	1.522892616949E12	2617.1875	20224.0	0.0	0.0	
-0.21374045801526717	11.0	-0.16793893129770993	14.0	1.648854961832061	-108.0	0.0963855421686747	1283.0	9.204819277108435	2039.0	0.3253012048192771	2020.0	-0.41909090909090907	461.0	-0.016363636363636365	-18.0	-0.23367346938775513	229.0	1.5228926169385E12	1.522892616951E12	2621.09375	20352.0	0.0	0.0	
-0.15267175572519084	19.0	-0.2900763358778626	10.0	1.7709923664122136	-116.0	0.07228915662650603	1284.0	9.19277108433735	2041.0	0.28915662650602414	2023.0	-0.4209090909090909	463.0	-0.025454545454545455	-28.0	-0.22755102040816327	223.0	1.5228926169424063E12	1.522892616952E12	2625.0	20480.0	0.0	0.0	
-0.1984732824427481	29.0	-0.4427480916030534	13.0	1.8015267175572518	-118.0	0.14457831325301207	1284.0	9.19277108433735	2035.0	0.2530120481927711	2026.0	-0.4209090909090909	463.0	-0.02	-22.0	-0.2326530612244898	228.0	1.5228926169463125E12	1.522892616953E12	2628.90625	20608.0	0.0	0.0	
-0.32061068702290074	18.0	-0.2748091603053435	21.0	1.816793893129771	-119.0	0.1927710843373494	1285.0	9.180722891566266	2031.0	0.2530120481927711	2026.0	-0.41909090909090907	461.0	-0.015454545454545455	-17.0	-0.23367346938775513	229.0	1.5228926169502188E12	1.522892616965E12	2632.8125	20736.0	0.0	0.0	
-0.183206106870229	10.0	-0.15267175572519084	12.0	1.83206106870229	-120.0	0.24096385542168675	1284.0	9.19277108433735	2027.0	0.22891566265060243	2028.0	-0.41909090909090907	461.0	-0.015454545454545455	-17.0	-0.23367346938775513	229.0	1.522892616954125E12	1.522892616965E12	2636.71875	20864.0	0.0	0.0	
-0.04580152671755725	6.0	-0.0916030534351145	3.0	1.66412213740458	-109.0	0.24096385542168675	1282.0	9.216867469879519	2027.0	0.1927710843373494	2031.0	-0.41363636363636364	455.0	-0.00909090909090909	-10.0	-0.23469387755102042	230.0	1.5228926169580313E12	1.522892616966E12	2640.625	20992.0	0.0	0.0	
0.015267175572519083	-10.0	0.15267175572519084	-1.0	1.8473282442748091	-121.0	0.21686746987951808	1283.0	9.204819277108435	2029.0	0.14457831325301207	2035.0	-0.41363636363636364	455.0	-0.01	-11.0	-0.21938775510204084	215.0	1.5228926169619375E12	1.522892616972E12	2644.53125	21120.0	0.0	0.0	
-0.07633587786259542	-6.0	0.0916030534351145	5.0	1.5267175572519083	-100.0	0.1927710843373494	1283.0	9.204819277108435	2031.0	0.13253012048192772	2036.0	-0.4081818181818182	449.0	-0.019090909090909092	-21.0	-0.2285714285714286	224.0	1.5228926169658438E12	1.522892616973E12	2648.4375	21248.0	0.0	0.0	
-0.21374045801526717	-9.0	0.13740458015267176	14.0	1.6793893129770991	-110.0	0.16867469879518074	1282.0	9.216867469879519	2033.0	0.13253012048192772	2036.0	-0.4172727272727273	459.0	-0.025454545454545455	-28.0	-0.2285714285714286	224.0	1.52289261696975E12	1.522892616974E12	2652.34375	21376.0	0.0	0.0	
0.061068702290076333	-14.0	0.21374045801526717	-4.0	1.5267175572519083	-100.0	0.10843373493975904	1283.0	9.204819277108435	2038.0	0.14457831325301207	2035.0	-0.4172727272727273	459.0	-0.02181818181818182	-24.0	-0.2295918367346939	225.0	1.5228926169736563E12	1.522892616985E12	2656.25	21504.0	0.0	0.0	
-0.015267175572519083	-12.0	0.183206106870229	1.0	1.3740458015267174	-90.0	0.07228915662650603	1284.0	9.19277108433735	2041.0	0.14457831325301207	2035.0	-0.4090909090909091	450.0	-0.017272727272727273	-19.0	-0.2295918367346939	225.0	1.5228926169775625E12	1.522892616985E12	2660.15625	21632.0	0.0	0.0	
-0.0916030534351145	-1.0	0.015267175572519083	6.0	1.3893129770992365	-91.0	0.08433734939759037	1285.0	9.180722891566266	2040.0	0.1566265060240964	2034.0	-0.4090909090909091	450.0	-0.017272727272727273	-19.0	-0.2295918367346939	225.0	1.5228926169814688E12	1.522892616986E12	2664.0625	21760.0	0.0	0.0	
-0.22900763358778625	-12.0	0.183206106870229	15.0	1.6335877862595418	-107.0	0.0963855421686747	1284.0	9.19277108433735	2039.0	0.16867469879518074	2033.0	-0.42	462.0	-0.025454545454545455	-28.0	-0.2285714285714286	224.0	1.522892616985375E12	1.522892616997E12	2667.96875	21888.0	0.0	0.0	
0.1984732824427481	-14.0	0.21374045801526717	-13.0	1.648854961832061	-108.0	0.0963855421686747	1285.0	9.180722891566266	2039.0	0.18072289156626506	2032.0	-0.4163636363636364	458.0	-0.023636363636363636	-26.0	-0.23367346938775513	229.0	1.5228926169892813E12	1.522892616998E12	2671.875	22016.0	0.0	0.0	
0.030534351145038167	-14.0	0.21374045801526717	-2.0	1.5419847328244274	-101.0	0.08433734939759037	1284.0	9.19277108433735	2040.0	0.16867469879518074	2033.0	-0.41818181818181815	460.0	-0.012727272727272728	-14.0	-0.22755102040816327	223.0	1.5228926169931875E12	1.522892616999E12	2675.78125	22144.0	0.0	0.0	
-0.16793893129770993	-18.0	0.2748091603053435	11.0	1.7709923664122136	-116.0	0.04819277108433735	1285.0	9.180722891566266	2043.0	0.18072289156626506	2032.0	-0.42	462.0	-0.023636363636363636	-26.0	-0.22653061224489798	222.0	1.5228926169970938E12	1.52289261701E12	2679.6875	22272.0	0.0	0.0	
-0.04580152671755725	-13.0	0.1984732824427481	3.0	1.7404580152671756	-114.0	0.060240963855421686	1284.0	9.19277108433735	2042.0	0.18072289156626506	2032.0	-0.41454545454545455	456.0	-0.023636363636363636	-26.0	-0.2285714285714286	224.0	1.522892617001E12	1.522892617011E12	2683.59375	22400.0	0.0	0.0	
-0.07633587786259542	-15.0	0.22900763358778625	5.0	1.618320610687023	-106.0	0.060240963855421686	1284.0	9.19277108433735	2042.0	0.21686746987951808	2029.0	-0.41454545454545455	456.0	-0.01090909090909091	-12.0	-0.2285714285714286	224.0	1.5228926170049063E12	1.522892617012E12	2687.5	22528.0	0.0	0.0	
-0.07633587786259542	-1.0	0.015267175572519083	5.0	1.7557251908396947	-115.0	0.060240963855421686	1283.0	9.204819277108435	2042.0	0.24096385542168675	2027.0	-0.4209090909090909	463.0	-0.01090909090909091	-12.0	-0.2285714285714286	224.0	1.5228926170088125E12	1.522892617018E12	2691.40625	22656.0	0.0	0.0	
-0.13740458015267176	-4.0	0.061068702290076333	9.0	1.7557251908396947	-115.0	0.0963855421686747	1283.0	9.204819277108435	2039.0	0.26506024096385544	2025.0	-0.41454545454545455	456.0	-0.006363636363636364	-7.0	-0.22142857142857145	217.0	1.5228926170127188E12	1.52289261702E12	2695.3125	22784.0	0.0	0.0	
0.0	3.0	-0.04580152671755725	0.0	1.7251908396946565	-113.0	0.04819277108433735	1284.0	9.19277108433735	2043.0	0.27710843373493976	2024.0	-0.41545454545454547	457.0	-0.012727272727272728	-14.0	-0.23163265306122452	227.0	1.522892617016625E12	1.522892617021E12	2699.21875	22912.0	0.0	0.0	
0.21374045801526717	-10.0	0.15267175572519084	-14.0	1.6946564885496183	-111.0	0.0	1286.0	9.168674698795181	2047.0	0.26506024096385544	2025.0	-0.41909090909090907	461.0	-0.01090909090909091	-12.0	-0.2285714285714286	224.0	1.5228926170205313E12	1.522892617033E12	2703.125	23040.0	0.0	0.0	
0.2748091603053435	7.0	-0.10687022900763359	-18.0	1.9389312977099236	-127.0	0.012048192771084338	1284.0	9.19277108433735	2046.0	0.2530120481927711	2026.0	-0.4118181818181818	453.0	-0.006363636363636364	-7.0	-0.2295918367346939	225.0	1.5228926170244375E12	1.522892617034E12	2707.03125	23168.0	0.0	0.0	
0.22900763358778625	12.0	-0.183206106870229	-15.0	1.8015267175572518	-118.0	0.060240963855421686	1285.0	9.180722891566266	2042.0	0.21686746987951808	2029.0	-0.4127272727272727	454.0	-0.017272727272727273	-19.0	-0.2306122448979592	226.0	1.5228926170283438E12	1.522892617035E12	2710.9375	23296.0	0.0	0.0	
0.3053435114503817	24.0	-0.366412213740458	-20.0	2.030534351145038	-133.0	0.13253012048192772	1285.0	9.180722891566266	2036.0	0.21686746987951808	2029.0	-0.4127272727272727	454.0	-0.017272727272727273	-19.0	-0.2306122448979592	226.0	1.52289261703225E12	1.522892617043E12	2714.84375	23424.0	0.0	0.0	
0.15267175572519084	16.0	-0.24427480916030533	-10.0	1.8931297709923662	-124.0	0.21686746987951808	1284.0	9.19277108433735	2029.0	0.20481927710843376	2030.0	-0.42	462.0	-0.019090909090909092	-21.0	-0.2285714285714286	224.0	1.5228926170361563E12	1.522892617044E12	2718.75	23552.0	0.0	0.0	
0.16793893129770993	14.0	-0.21374045801526717	-11.0	1.9236641221374045	-126.0	0.26506024096385544	1283.0	9.204819277108435	2025.0	0.1927710843373494	2031.0	-0.42363636363636364	466.0	-0.025454545454545455	-28.0	-0.22653061224489798	222.0	1.5228926170400625E12	1.522892617045E12	2722.65625	23680.0	0.0	0.0	
0.2748091603053435	8.0	-0.12213740458015267	-18.0	1.9389312977099236	-127.0	0.21686746987951808	1283.0	9.204819277108435	2029.0	0.1566265060240964	2034.0	-0.41363636363636364	455.0	-0.02181818181818182	-24.0	-0.2285714285714286	224.0	1.5228926170439688E12	1.522892617092E12	2726.5625	23808.0	0.0	0.0	
0.0	-3.0	0.04580152671755725	0.0	1.7709923664122136	-116.0	0.10843373493975904	1283.0	9.204819277108435	2038.0	0.1566265060240964	2034.0	-0.4127272727272727	454.0	0.0027272727272727275	3.0	-0.22653061224489798	222.0	1.522892617047875E12	1.522892617093E12	2730.46875	23936.0	0.0	0.0	
0.4580152671755725	-2.0	0.030534351145038167	-30.0	1.83206106870229	-120.0	0.0963855421686747	1283.0	9.204819277108435	2039.0	0.1566265060240964	2034.0	-0.4127272727272727	454.0	-0.02	-22.0	-0.22755102040816327	223.0	1.5228926170517813E12	1.522892617094E12	2734.375	24064.0	0.0	0.0	
0.33587786259541985	4.0	-0.061068702290076333	-22.0	1.9236641221374045	-126.0	0.10843373493975904	1284.0	9.19277108433735	2038.0	0.18072289156626506	2032.0	-0.4172727272727273	459.0	-0.023636363636363636	-26.0	-0.2306122448979592	226.0	1.5228926170556875E12	1.522892617095E12	2738.28125	24192.0	0.0	0.0	
0.3969465648854962	2.0	-0.030534351145038167	-26.0	1.7709923664122136	-116.0	0.13253012048192772	1284.0	9.19277108433735	2036.0	0.18072289156626506	2032.0	-0.4172727272727273	459.0	-0.023636363636363636	-26.0	-0.2306122448979592	226.0	1.5228926170595938E12	1.522892617096E12	2742.1875	24320.0	0.0	0.0	
0.48854961832061067	11.0	-0.16793893129770993	-32.0	1.618320610687023	-106.0	0.1566265060240964	1285.0	9.180722891566266	2034.0	0.18072289156626506	2032.0	-0.4118181818181818	453.0	-0.01	-11.0	-0.22551020408163266	221.0	1.5228926170635E12	1.522892617097E12	2746.09375	24448.0	0.0	0.0	
0.32061068702290074	14.0	-0.21374045801526717	-21.0	1.83206106870229	-120.0	0.1927710843373494	1286.0	9.168674698795181	2031.0	0.18072289156626506	2032.0	-0.42363636363636364	466.0	-0.02727272727272727	-30.0	-0.22755102040816327	223.0	1.5228926170674063E12	1.522892617098E12	2750.0	24576.0	0.0	0.0	
0.33587786259541985	14.0	-0.21374045801526717	-22.0	1.7251908396946565	-113.0	0.18072289156626506	1284.0	9.19277108433735	2032.0	0.16867469879518074	2033.0	-0.41818181818181815	460.0	-0.019090909090909092	-21.0	-0.2285714285714286	224.0	1.5228926170713125E12	1.522892617099E12	2753.90625	24704.0	0.0	0.0	
0.42748091603053434	23.0	-0.3511450381679389	-28.0	1.66412213740458	-109.0	0.18072289156626506	1284.0	9.19277108433735	2032.0	0.14457831325301207	2035.0	-0.4218181818181818	464.0	-0.01818181818181818	-20.0	-0.22448979591836737	220.0	1.5228926170752188E12	1.5228926171E12	2757.8125	24832.0	0.0	0.0	
0.33587786259541985	18.0	-0.2748091603053435	-22.0	1.618320610687023	-106.0	0.18072289156626506	1284.0	9.19277108433735	2032.0	0.10843373493975904	2038.0	-0.4163636363636364	458.0	-0.025454545454545455	-28.0	-0.2306122448979592	226.0	1.522892617079125E12	1.522892617101E12	2761.71875	24960.0	0.0	0.0	
0.4427480916030534	25.0	-0.38167938931297707	-29.0	1.6793893129770991	-110.0	0.14457831325301207	1284.0	9.19277108433735	2035.0	0.0963855421686747	2039.0	-0.41363636363636364	455.0	-0.007272727272727273	-8.0	-0.22346938775510206	219.0	1.5228926170830313E12	1.522892617102E12	2765.625	25088.0	0.0	0.0	
0.2595419847328244	22.0	-0.33587786259541985	-17.0	1.4351145038167938	-94.0	0.16867469879518074	1284.0	9.19277108433735	2033.0	0.060240963855421686	2042.0	-0.41363636363636364	455.0	-0.007272727272727273	-8.0	-0.22346938775510206	219.0	1.5228926170869375E12	1.522892617103E12	2769.53125	25216.0	0.0	0.0	
0.21374045801526717	16.0	-0.24427480916030533	-14.0	1.6793893129770991	-110.0	0.1566265060240964	1286.0	9.168674698795181	2034.0	0.03614457831325302	2044.0	-0.4209090909090909	463.0	-0.014545454545454545	-16.0	-0.22551020408163266	221.0	1.5228926170908438E12	1.522892617104E12	2773.4375	25344.0	0.0	0.0	
0.33587786259541985	18.0	-0.2748091603053435	-22.0	1.6946564885496183	-111.0	0.14457831325301207	1284.0	9.19277108433735	2035.0	0.0	2047.0	-0.41909090909090907	461.0	-0.02909090909090909	-32.0	-0.2306122448979592	226.0	1.52289261709475E12	1.522892617105E12	2777.34375	25472.0	0.0	0.0	
0.2900763358778626	26.0	-0.3969465648854962	-19.0	1.6030534351145038	-105.0	0.13253012048192772	1285.0	9.180722891566266	2036.0	-0.024096385542168676	2049.0	-0.4163636363636364	458.0	-0.01	-11.0	-0.22346938775510206	219.0	1.5228926170986563E12	1.522892617106E12	2781.25	25600.0	0.0	0.0	
0.2900763358778626	32.0	-0.48854961832061067	-19.0	1.8473282442748091	-121.0	0.12048192771084337	1285.0	9.180722891566266	2037.0	-0.04819277108433735	2051.0	-0.42272727272727273	465.0	-0.017272727272727273	-19.0	-0.2285714285714286	224.0	1.5228926171025625E12	1.522892617106E12	2785.15625	25728.0	0.0	0.0	
0.0916030534351145	15.0	-0.22900763358778625	-6.0	1.6793893129770991	-110.0	0.12048192771084337	1285.0	9.180722891566266	2037.0	-0.03614457831325302	2050.0	-0.42	462.0	-0.008181818181818182	-9.0	-0.22244897959183677	218.0	1.5228926171064688E12	1.52289261712E12	2789.0625	25856.0	0.0	0.0	
0.183206106870229	29.0	-0.4427480916030534	-12.0	1.5877862595419847	-104.0	0.1927710843373494	1285.0	9.180722891566266	2031.0	-0.04819277108433735	2051.0	-0.4172727272727273	459.0	-0.02	-22.0	-0.22448979591836737	220.0	1.522892617110375E12	1.522892617121E12	2792.96875	25984.0	0.0	0.0	
0.1984732824427481	27.0	-0.41221374045801523	-13.0	1.8473282442748091	-121.0	0.22891566265060243	1283.0	9.204819277108435	2028.0	-0.03614457831325302	2050.0	-0.4172727272727273	459.0	-0.02	-22.0	-0.22448979591836737	220.0	1.5228926171142813E12	1.522892617122E12	2796.875	26112.0	0.0	0.0	
0.13740458015267176	2.0	-0.030534351145038167	-9.0	1.5725190839694656	-103.0	0.2530120481927711	1284.0	9.19277108433735	2026.0	-0.012048192771084338	2048.0	-0.4118181818181818	453.0	9.090909090909091E-4	1.0	-0.2295918367346939	225.0	1.5228926171181875E12	1.522892617125E12	2800.78125	26240.0	0.0	0.0	
0.16793893129770993	-2.0	0.030534351145038167	-11.0	1.465648854961832	-96.0	0.22891566265060243	1284.0	9.19277108433735	2028.0	-0.012048192771084338	2048.0	-0.4209090909090909	463.0	-0.01818181818181818	-20.0	-0.2306122448979592	226.0	1.5228926171220938E12	1.522892617125E12	2804.6875	26368.0	0.0	0.0	
0.22900763358778625	-16.0	0.24427480916030533	-15.0	1.4045801526717556	-92.0	0.16867469879518074	1283.0	9.204819277108435	2033.0	-0.024096385542168676	2049.0	-0.4163636363636364	458.0	-0.017272727272727273	-19.0	-0.2306122448979592	226.0	1.522892617126E12	1.522892617126E12	2808.59375	26496.0	0.0	0.0	
0.04580152671755725	-19.0	0.2900763358778626	-3.0	1.4045801526717556	-92.0	0.10843373493975904	1282.0	9.216867469879519	2038.0	0.0	2047.0	-0.42454545454545456	467.0	-0.016363636363636365	-18.0	-0.22653061224489798	222.0	1.5228926171299063E12	1.522892617139E12	2812.5	26624.0	0.0	0.0	
0.030534351145038167	-22.0	0.33587786259541985	-2.0	1.5877862595419847	-104.0	0.12048192771084337	1284.0	9.19277108433735	2037.0	0.012048192771084338	2046.0	-0.4172727272727273	459.0	-0.008181818181818182	-9.0	-0.22346938775510206	219.0	1.5228926171338125E12	1.52289261714E12	2816.40625	26752.0	0.0	0.0	
0.0	-22.0	0.33587786259541985	0.0	1.5114503816793892	-99.0	0.12048192771084337	1283.0	9.204819277108435	2037.0	0.024096385542168676	2045.0	-0.4172727272727273	459.0	-0.014545454545454545	-16.0	-0.2306122448979592	226.0	1.5228926171377188E12	1.522892617141E12	2820.3125	26880.0	0.0	0.0	
0.15267175572519084	-21.0	0.32061068702290074	-10.0	1.465648854961832	-96.0	0.14457831325301207	1285.0	9.180722891566266	2035.0	0.060240963855421686	2042.0	-0.42	462.0	-0.014545454545454545	-16.0	-0.2306122448979592	226.0	1.522892617141625E12	1.522892617151E12	2824.21875	27008.0	0.0	0.0	
-0.07633587786259542	-17.0	0.2595419847328244	5.0	1.66412213740458	-109.0	0.14457831325301207	1284.0	9.19277108433735	2035.0	0.08433734939759037	2040.0	-0.42363636363636364	466.0	-0.016363636363636365	-18.0	-0.2285714285714286	224.0	1.5228926171455313E12	1.522892617152E12	2828.125	27136.0	0.0	0.0	
0.04580152671755725	-25.0	0.38167938931297707	-3.0	1.5877862595419847	-104.0	0.10843373493975904	1285.0	9.180722891566266	2038.0	0.0963855421686747	2039.0	-0.4209090909090909	463.0	-0.02727272727272727	-30.0	-0.2306122448979592	226.0	1.5228926171494375E12	1.522892617153E12	2832.03125	27264.0	0.0	0.0	
0.2900763358778626	-40.0	0.6106870229007634	-19.0	1.648854961832061	-108.0	0.08433734939759037	1285.0	9.180722891566266	2040.0	0.08433734939759037	2040.0	-0.42	462.0	-0.02090909090909091	-23.0	-0.22448979591836737	220.0	1.5228926171533438E12	1.522892617166E12	2835.9375	27392.0	0.0	0.0	
0.2900763358778626	-28.0	0.42748091603053434	-19.0	1.5419847328244274	-101.0	0.060240963855421686	1283.0	9.204819277108435	2042.0	0.03614457831325302	2044.0	-0.42	462.0	-0.01818181818181818	-20.0	-0.22244897959183677	218.0	1.52289261715725E12	1.522892617167E12	2839.84375	27520.0	0.0	0.0	
0.030534351145038167	-15.0	0.22900763358778625	-2.0	1.7404580152671756	-114.0	0.04819277108433735	1284.0	9.19277108433735	2043.0	0.04819277108433735	2043.0	-0.41818181818181815	460.0	-0.024545454545454544	-27.0	-0.2306122448979592	226.0	1.5228926171611563E12	1.522892617168E12	2843.75	27648.0	0.0	0.0	
0.030534351145038167	-18.0	0.2748091603053435	-2.0	1.6030534351145038	-105.0	0.0	1283.0	9.204819277108435	2047.0	0.08433734939759037	2040.0	-0.41818181818181815	460.0	-0.024545454545454544	-27.0	-0.2306122448979592	226.0	1.5228926171650625E12	1.522892617175E12	2847.65625	27776.0	0.0	0.0	
0.16793893129770993	-9.0	0.13740458015267176	-11.0	1.618320610687023	-106.0	-0.07228915662650603	1286.0	9.168674698795181	2053.0	0.08433734939759037	2040.0	-0.42	462.0	-0.016363636363636365	-18.0	-0.23163265306122452	227.0	1.5228926171689688E12	1.522892617176E12	2851.5625	27904.0	0.0	0.0	
0.04580152671755725	-14.0	0.21374045801526717	-3.0	1.648854961832061	-108.0	-0.08433734939759037	1285.0	9.180722891566266	2054.0	0.0963855421686747	2039.0	-0.42454545454545456	467.0	-0.023636363636363636	-26.0	-0.22346938775510206	219.0	1.522892617172875E12	1.522892617177E12	2855.46875	28032.0	0.0	0.0	
0.183206106870229	3.0	-0.04580152671755725	-12.0	1.8015267175572518	-118.0	-0.08433734939759037	1287.0	9.156626506024097	2054.0	0.13253012048192772	2036.0	-0.42454545454545456	467.0	-0.028181818181818183	-31.0	-0.2306122448979592	226.0	1.5228926171767813E12	1.522892617187E12	2859.375	28160.0	0.0	0.0	
0.07633587786259542	-5.0	0.07633587786259542	-5.0	1.8625954198473282	-122.0	-0.060240963855421686	1286.0	9.168674698795181	2052.0	0.14457831325301207	2035.0	-0.4090909090909091	450.0	-0.02	-22.0	-0.22755102040816327	223.0	1.5228926171806875E12	1.522892617189E12	2863.28125	28288.0	0.0	0.0	
0.07633587786259542	4.0	-0.061068702290076333	-5.0	1.9236641221374045	-126.0	-0.012048192771084338	1286.0	9.168674698795181	2048.0	0.13253012048192772	2036.0	-0.42363636363636364	466.0	-0.02090909090909091	-23.0	-0.22346938775510206	219.0	1.5228926171845938E12	1.522892617191E12	2867.1875	28416.0	0.0	0.0	
0.3053435114503817	5.0	-0.07633587786259542	-20.0	1.816793893129771	-119.0	0.0	1285.0	9.180722891566266	2047.0	0.12048192771084337	2037.0	-0.42	462.0	-0.008181818181818182	-9.0	-0.22551020408163266	221.0	1.5228926171885E12	1.5228926172E12	2871.09375	28544.0	0.0	0.0	
0.4580152671755725	8.0	-0.12213740458015267	-30.0	1.984732824427481	-130.0	0.0	1284.0	9.19277108433735	2047.0	0.0963855421686747	2039.0	-0.42	462.0	-0.008181818181818182	-9.0	-0.22551020408163266	221.0	1.5228926171924063E12	1.522892617201E12	2875.0	28672.0	0.0	0.0	
