left thigh	left thigh	left thigh	left thigh	left thigh	left thigh	left thigh	left thigh	left thigh	left thigh	left thigh	left thigh	left thigh	left thigh	left thigh	left thigh	left thigh	left thigh	left thigh	left thigh	left thigh	left thigh	Annotation	Annotation	
Gyroscope X	Gyroscope X	Gyroscope Y	Gyroscope Y	Gyroscope Z	Gyroscope Z	Low Noise Accelerometer X	Low Noise Accelerometer X	Low Noise Accelerometer Y	Low Noise Accelerometer Y	Low Noise Accelerometer Z	Low Noise Accelerometer Z	Magnetometer X	Magnetometer X	Magnetometer Y	Magnetometer Y	Magnetometer Z	Magnetometer Z	SyncTimestamp	SystemTimestamp	Timestamp	Timestamp	Level	Pulse	
CAL	RAW	CAL	RAW	CAL	RAW	CAL	RAW	CAL	RAW	CAL	RAW	CAL	RAW	CAL	RAW	CAL	RAW	CAL	UNCAL	CAL	RAW	no format	no format	
deg/s	No Units	deg/s	No Units	deg/s	No Units	m/s^2	No Units	m/s^2	No Units	m/s^2	No Units	local flux	No Units	local flux	No Units	local flux	No Units	mSecs	mSecs	mSecs	No Units	no unit	no unit	
-1.5572519083969465	-52.0	0.7938931297709924	102.0	1.297709923664122	-85.0	0.13253012048192772	1283.0	9.204819277108435	2036.0	-0.060240963855421686	2052.0	-0.41909090909090907	461.0	-0.026363636363636363	-29.0	-0.22244897959183677	218.0	1.5228926414289063E12	1.52289264144E12	1113.28125	36480.0	0.0	0.0	
-1.6793893129770991	-67.0	1.0229007633587786	110.0	1.3282442748091603	-87.0	0.14457831325301207	1283.0	9.204819277108435	2035.0	-0.04819277108433735	2051.0	-0.41545454545454547	457.0	-0.025454545454545455	-28.0	-0.22755102040816327	223.0	1.5228926414328125E12	1.522892641441E12	1117.1875	36608.0	0.0	0.0	
-1.5419847328244274	-49.0	0.7480916030534351	101.0	1.2366412213740459	-81.0	0.1566265060240964	1284.0	9.19277108433735	2034.0	-0.07228915662650603	2053.0	-0.41909090909090907	461.0	-0.01090909090909091	-12.0	-0.22448979591836737	220.0	1.5228926414367188E12	1.522892641454E12	1121.09375	36736.0	0.0	0.0	
-1.4809160305343512	-55.0	0.8396946564885496	97.0	1.0534351145038168	-69.0	0.14457831325301207	1284.0	9.19277108433735	2035.0	-0.08433734939759037	2054.0	-0.41909090909090907	461.0	-0.028181818181818183	-31.0	-0.22142857142857145	217.0	1.522892641440625E12	1.522892641455E12	1125.0	36864.0	0.0	0.0	
-1.5725190839694656	-51.0	0.7786259541984732	103.0	1.2213740458015268	-80.0	0.13253012048192772	1284.0	9.19277108433735	2036.0	-0.060240963855421686	2052.0	-0.4127272727272727	454.0	-0.02090909090909091	-23.0	-0.22346938775510206	219.0	1.5228926414445313E12	1.522892641455E12	1128.90625	36992.0	0.0	0.0	
-1.6335877862595418	-35.0	0.5343511450381679	107.0	1.083969465648855	-71.0	0.13253012048192772	1284.0	9.19277108433735	2036.0	-0.04819277108433735	2051.0	-0.41818181818181815	460.0	-0.01818181818181818	-20.0	-0.22244897959183677	218.0	1.5228926414484375E12	1.522892641456E12	1132.8125	37120.0	0.0	0.0	
-1.7862595419847327	-54.0	0.8244274809160305	117.0	1.129770992366412	-74.0	0.1566265060240964	1285.0	9.180722891566266	2034.0	-0.03614457831325302	2050.0	-0.41818181818181815	460.0	-0.01818181818181818	-20.0	-0.22244897959183677	218.0	1.5228926414523438E12	1.522892641457E12	1136.71875	37248.0	0.0	0.0	
-1.8015267175572518	-66.0	1.0076335877862594	118.0	1.0534351145038168	-69.0	0.12048192771084337	1284.0	9.19277108433735	2037.0	-0.024096385542168676	2049.0	-0.41818181818181815	460.0	-0.007272727272727273	-8.0	-0.22346938775510206	219.0	1.52289264145625E12	1.522892641457E12	1140.625	37376.0	0.0	0.0	
-1.618320610687023	-63.0	0.9618320610687022	106.0	1.2519083969465647	-82.0	0.060240963855421686	1284.0	9.19277108433735	2042.0	-0.012048192771084338	2048.0	-0.41363636363636364	455.0	-0.017272727272727273	-19.0	-0.22448979591836737	220.0	1.5228926414601563E12	1.522892641483E12	1144.53125	37504.0	0.0	0.0	
-1.6793893129770991	-77.0	1.1755725190839694	110.0	1.2061068702290076	-79.0	-0.012048192771084338	1283.0	9.204819277108435	2048.0	-0.03614457831325302	2050.0	-0.4163636363636364	458.0	-0.01090909090909091	-12.0	-0.22142857142857145	217.0	1.5228926414640625E12	1.522892641484E12	1148.4375	37632.0	0.0	0.0	
-1.7099236641221374	-73.0	1.114503816793893	112.0	1.1755725190839694	-77.0	-0.024096385542168676	1284.0	9.19277108433735	2049.0	0.012048192771084338	2046.0	-0.4209090909090909	463.0	-0.023636363636363636	-26.0	-0.22346938775510206	219.0	1.5228926414679688E12	1.522892641484E12	1152.34375	37760.0	0.0	0.0	
-1.6335877862595418	-73.0	1.114503816793893	107.0	1.4351145038167938	-94.0	-0.03614457831325302	1284.0	9.19277108433735	2050.0	0.04819277108433735	2043.0	-0.4109090909090909	452.0	-0.025454545454545455	-28.0	-0.2285714285714286	224.0	1.522892641471875E12	1.522892641486E12	1156.25	37888.0	0.0	0.0	
-1.8015267175572518	-66.0	1.0076335877862594	118.0	1.2366412213740459	-81.0	-0.03614457831325302	1285.0	9.180722891566266	2050.0	0.10843373493975904	2038.0	-0.4172727272727273	459.0	-0.014545454545454545	-16.0	-0.22448979591836737	220.0	1.5228926414757813E12	1.522892641488E12	1160.15625	38016.0	0.0	0.0	
-1.6793893129770991	-39.0	0.5954198473282443	110.0	1.6335877862595418	-107.0	0.012048192771084338	1286.0	9.168674698795181	2046.0	0.14457831325301207	2035.0	-0.4172727272727273	459.0	-0.014545454545454545	-16.0	-0.22448979591836737	220.0	1.5228926414796875E12	1.522892641488E12	1164.0625	38144.0	0.0	0.0	
-1.66412213740458	-32.0	0.48854961832061067	109.0	1.465648854961832	-96.0	0.060240963855421686	1288.0	9.144578313253012	2042.0	0.1566265060240964	2034.0	-0.4209090909090909	463.0	-0.025454545454545455	-28.0	-0.22551020408163266	221.0	1.5228926414835938E12	1.5228926415E12	1167.96875	38272.0	0.0	0.0	
-1.6946564885496183	-29.0	0.4427480916030534	111.0	1.1450381679389312	-75.0	0.0963855421686747	1286.0	9.168674698795181	2039.0	0.1566265060240964	2034.0	-0.41363636363636364	455.0	-0.02727272727272727	-30.0	-0.22551020408163266	221.0	1.5228926414875E12	1.522892641501E12	1171.875	38400.0	0.0	0.0	
-1.1908396946564885	-26.0	0.3969465648854962	78.0	1.1908396946564885	-78.0	0.07228915662650603	1287.0	9.156626506024097	2041.0	0.13253012048192772	2036.0	-0.41909090909090907	461.0	-0.013636363636363636	-15.0	-0.22346938775510206	219.0	1.5228926414914063E12	1.522892641505E12	1175.78125	38528.0	0.0	0.0	
-1.5877862595419847	-22.0	0.33587786259541985	104.0	0.9312977099236641	-61.0	0.07228915662650603	1286.0	9.168674698795181	2041.0	0.10843373493975904	2038.0	-0.4163636363636364	458.0	-0.007272727272727273	-8.0	-0.2163265306122449	212.0	1.5228926414953125E12	1.522892641512E12	1179.6875	38656.0	0.0	0.0	
-1.3587786259541985	-31.0	0.47328244274809156	89.0	1.0381679389312977	-68.0	0.07228915662650603	1285.0	9.180722891566266	2041.0	0.07228915662650603	2041.0	-0.41818181818181815	460.0	-0.02	-22.0	-0.21938775510204084	215.0	1.5228926414992188E12	1.522892641513E12	1183.59375	38784.0	0.0	0.0	
-1.2213740458015268	-30.0	0.4580152671755725	80.0	1.1603053435114503	-76.0	0.07228915662650603	1283.0	9.204819277108435	2041.0	0.04819277108433735	2043.0	-0.41909090909090907	461.0	-0.013636363636363636	-15.0	-0.22551020408163266	221.0	1.522892641503125E12	1.522892641514E12	1187.5	38912.0	0.0	0.0	
-1.4351145038167938	-36.0	0.549618320610687	94.0	1.1603053435114503	-76.0	0.060240963855421686	1283.0	9.204819277108435	2042.0	0.04819277108433735	2043.0	-0.41909090909090907	461.0	-0.013636363636363636	-15.0	-0.22551020408163266	221.0	1.5228926415070313E12	1.522892641517E12	1191.40625	39040.0	0.0	0.0	
-1.465648854961832	-60.0	0.916030534351145	96.0	1.2671755725190839	-83.0	0.04819277108433735	1284.0	9.19277108433735	2043.0	0.04819277108433735	2043.0	-0.41818181818181815	460.0	-0.02727272727272727	-30.0	-0.22448979591836737	220.0	1.5228926415109375E12	1.522892641518E12	1195.3125	39168.0	0.0	0.0	
-1.3740458015267174	-57.0	0.8702290076335878	90.0	1.3129770992366412	-86.0	0.04819277108433735	1283.0	9.204819277108435	2043.0	0.07228915662650603	2041.0	-0.4172727272727273	459.0	-0.022727272727272728	-25.0	-0.21938775510204084	215.0	1.5228926415148438E12	1.522892641519E12	1199.21875	39296.0	0.0	0.0	
-1.4351145038167938	-54.0	0.8244274809160305	94.0	1.3282442748091603	-87.0	0.03614457831325302	1283.0	9.204819277108435	2044.0	0.07228915662650603	2041.0	-0.4172727272727273	459.0	-0.01818181818181818	-20.0	-0.22142857142857145	217.0	1.52289264151875E12	1.52289264153E12	1203.125	39424.0	0.0	0.0	
-1.66412213740458	-60.0	0.916030534351145	109.0	1.2671755725190839	-83.0	0.03614457831325302	1285.0	9.180722891566266	2044.0	0.08433734939759037	2040.0	-0.41909090909090907	461.0	-0.019090909090909092	-21.0	-0.2295918367346939	225.0	1.5228926415226563E12	1.52289264153E12	1207.03125	39552.0	0.0	0.0	
-1.4809160305343512	-49.0	0.7480916030534351	97.0	1.3893129770992365	-91.0	0.03614457831325302	1285.0	9.180722891566266	2044.0	0.10843373493975904	2038.0	-0.41454545454545455	456.0	-0.01818181818181818	-20.0	-0.2306122448979592	226.0	1.5228926415265625E12	1.522892641531E12	1210.9375	39680.0	0.0	0.0	
-1.4809160305343512	-50.0	0.7633587786259541	97.0	1.2519083969465647	-82.0	0.03614457831325302	1284.0	9.19277108433735	2044.0	0.12048192771084337	2037.0	-0.4109090909090909	452.0	-0.02090909090909091	-23.0	-0.22551020408163266	221.0	1.5228926415304688E12	1.522892641545E12	1214.84375	39808.0	0.0	0.0	
-1.4961832061068703	-28.0	0.42748091603053434	98.0	1.2213740458015268	-80.0	0.024096385542168676	1286.0	9.168674698795181	2045.0	0.12048192771084337	2037.0	-0.4109090909090909	452.0	-0.02090909090909091	-23.0	-0.22551020408163266	221.0	1.522892641534375E12	1.522892641546E12	1218.75	39936.0	0.0	0.0	
-1.1755725190839694	-29.0	0.4427480916030534	77.0	1.2061068702290076	-79.0	-0.012048192771084338	1285.0	9.180722891566266	2048.0	0.10843373493975904	2038.0	-0.41363636363636364	455.0	-0.019090909090909092	-21.0	-0.2285714285714286	224.0	1.5228926415382813E12	1.522892641546E12	1222.65625	40064.0	0.0	0.0	
-1.4809160305343512	-37.0	0.564885496183206	97.0	1.2671755725190839	-83.0	-0.012048192771084338	1284.0	9.19277108433735	2048.0	0.10843373493975904	2038.0	-0.4109090909090909	452.0	-0.024545454545454544	-27.0	-0.22653061224489798	222.0	1.5228926415421875E12	1.522892641548E12	1226.5625	40192.0	0.0	0.0	
-1.2519083969465647	-32.0	0.48854961832061067	82.0	1.0687022900763359	-70.0	-0.04819277108433735	1284.0	9.19277108433735	2051.0	0.10843373493975904	2038.0	-0.42	462.0	-0.017272727272727273	-19.0	-0.22346938775510206	219.0	1.5228926415460938E12	1.522892641549E12	1230.46875	40320.0	0.0	0.0	
-1.3740458015267174	-34.0	0.5190839694656488	90.0	1.297709923664122	-85.0	-0.08433734939759037	1285.0	9.180722891566266	2054.0	0.12048192771084337	2037.0	-0.4172727272727273	459.0	-0.025454545454545455	-28.0	-0.2295918367346939	225.0	1.52289264155E12	1.52289264155E12	1234.375	40448.0	0.0	0.0	
-1.3435114503816794	-29.0	0.4427480916030534	88.0	1.450381679389313	-95.0	-0.060240963855421686	1284.0	9.19277108433735	2052.0	0.13253012048192772	2036.0	-0.41363636363636364	455.0	-0.011818181818181818	-13.0	-0.22653061224489798	222.0	1.5228926415539063E12	1.522892641561E12	1238.28125	40576.0	0.0	0.0	
-1.3282442748091603	-33.0	0.5038167938931297	87.0	1.465648854961832	-96.0	0.0	1286.0	9.168674698795181	2047.0	0.14457831325301207	2035.0	-0.41363636363636364	455.0	-0.023636363636363636	-26.0	-0.22653061224489798	222.0	1.5228926415578125E12	1.522892641566E12	1242.1875	40704.0	0.0	0.0	
-1.3129770992366412	-31.0	0.47328244274809156	86.0	1.4351145038167938	-94.0	0.07228915662650603	1286.0	9.168674698795181	2041.0	0.18072289156626506	2032.0	-0.4109090909090909	452.0	-0.023636363636363636	-26.0	-0.22448979591836737	220.0	1.5228926415617188E12	1.522892641567E12	1246.09375	40832.0	0.0	0.0	
-1.3435114503816794	-39.0	0.5954198473282443	88.0	1.5114503816793892	-99.0	0.0963855421686747	1285.0	9.180722891566266	2039.0	0.16867469879518074	2033.0	-0.41909090909090907	461.0	-0.014545454545454545	-16.0	-0.2285714285714286	224.0	1.522892641565625E12	1.522892641568E12	1250.0	40960.0	0.0	0.0	
-1.297709923664122	-39.0	0.5954198473282443	85.0	1.297709923664122	-85.0	0.12048192771084337	1286.0	9.168674698795181	2037.0	0.16867469879518074	2033.0	-0.4118181818181818	453.0	-0.013636363636363636	-15.0	-0.22346938775510206	219.0	1.5228926415695313E12	1.522892641579E12	1253.90625	41088.0	0.0	0.0	
-1.2213740458015268	-33.0	0.5038167938931297	80.0	1.2366412213740459	-81.0	0.10843373493975904	1284.0	9.19277108433735	2038.0	0.13253012048192772	2036.0	-0.4118181818181818	453.0	0.0018181818181818182	2.0	-0.22346938775510206	219.0	1.5228926415734375E12	1.52289264158E12	1257.8125	41216.0	0.0	0.0	
-1.1908396946564885	-35.0	0.5343511450381679	78.0	1.1755725190839694	-77.0	0.024096385542168676	1283.0	9.204819277108435	2045.0	0.14457831325301207	2035.0	-0.4118181818181818	453.0	-0.022727272727272728	-25.0	-0.22551020408163266	221.0	1.5228926415773438E12	1.522892641581E12	1261.71875	41344.0	0.0	0.0	
-1.3740458015267174	-34.0	0.5190839694656488	90.0	1.0534351145038168	-69.0	-0.03614457831325302	1284.0	9.19277108433735	2050.0	0.1566265060240964	2034.0	-0.4118181818181818	453.0	-0.014545454545454545	-16.0	-0.2295918367346939	225.0	1.52289264158125E12	1.522892641592E12	1265.625	41472.0	0.0	0.0	
-1.2213740458015268	-20.0	0.3053435114503817	80.0	1.297709923664122	-85.0	-0.04819277108433735	1282.0	9.216867469879519	2051.0	0.1927710843373494	2031.0	-0.4118181818181818	453.0	-0.014545454545454545	-16.0	-0.2295918367346939	225.0	1.5228926415851563E12	1.522892641593E12	1269.53125	41600.0	0.0	0.0	
-1.2671755725190839	-28.0	0.42748091603053434	83.0	1.2061068702290076	-79.0	-0.04819277108433735	1283.0	9.204819277108435	2051.0	0.24096385542168675	2027.0	-0.4172727272727273	459.0	-0.01818181818181818	-20.0	-0.22040816326530616	216.0	1.5228926415890625E12	1.522892641594E12	1273.4375	41728.0	0.0	0.0	
-1.0687022900763359	-31.0	0.47328244274809156	70.0	1.3435114503816794	-88.0	-0.060240963855421686	1285.0	9.180722891566266	2052.0	0.24096385542168675	2027.0	-0.41818181818181815	460.0	-0.02181818181818182	-24.0	-0.22244897959183677	218.0	1.5228926415929688E12	1.522892641643E12	1277.34375	41856.0	0.0	0.0	
-1.099236641221374	-23.0	0.3511450381679389	72.0	1.3893129770992365	-91.0	-0.012048192771084338	1285.0	9.180722891566266	2048.0	0.2530120481927711	2026.0	-0.4118181818181818	453.0	-0.017272727272727273	-19.0	-0.22755102040816327	223.0	1.522892641596875E12	1.522892641644E12	1281.25	41984.0	0.0	0.0	
-0.8091603053435115	-30.0	0.4580152671755725	53.0	1.3740458015267174	-90.0	0.024096385542168676	1286.0	9.168674698795181	2045.0	0.2530120481927711	2026.0	-0.42	462.0	-0.02	-22.0	-0.22244897959183677	218.0	1.5228926416007813E12	1.522892641646E12	1285.15625	42112.0	0.0	0.0	
-0.732824427480916	-22.0	0.33587786259541985	48.0	1.5419847328244274	-101.0	0.04819277108433735	1285.0	9.180722891566266	2043.0	0.24096385542168675	2027.0	-0.41818181818181815	460.0	-0.005454545454545455	-6.0	-0.22448979591836737	220.0	1.5228926416046875E12	1.522892641647E12	1289.0625	42240.0	0.0	0.0	
-0.8244274809160305	-19.0	0.2900763358778626	54.0	1.282442748091603	-84.0	0.04819277108433735	1286.0	9.168674698795181	2043.0	0.22891566265060243	2028.0	-0.41454545454545455	456.0	-0.01090909090909091	-12.0	-0.22653061224489798	222.0	1.5228926416085938E12	1.522892641648E12	1292.96875	42368.0	0.0	0.0	
-0.8549618320610687	-34.0	0.5190839694656488	56.0	1.4198473282442747	-93.0	0.03614457831325302	1283.0	9.204819277108435	2044.0	0.22891566265060243	2028.0	-0.41454545454545455	456.0	-0.01090909090909091	-12.0	-0.22653061224489798	222.0	1.5228926416125E12	1.522892641649E12	1296.875	42496.0	0.0	0.0	
-0.8854961832061068	-30.0	0.4580152671755725	58.0	1.1603053435114503	-76.0	0.024096385542168676	1284.0	9.19277108433735	2045.0	0.24096385542168675	2027.0	-0.42	462.0	-0.02	-22.0	-0.22244897959183677	218.0	1.5228926416164063E12	1.52289264165E12	1300.78125	42624.0	0.0	0.0	
-0.8396946564885496	-23.0	0.3511450381679389	55.0	1.2366412213740459	-81.0	-0.03614457831325302	1283.0	9.204819277108435	2050.0	0.22891566265060243	2028.0	-0.4218181818181818	464.0	-0.025454545454545455	-28.0	-0.22551020408163266	221.0	1.5228926416203125E12	1.522892641651E12	1304.6875	42752.0	0.0	0.0	
-0.7022900763358778	-19.0	0.2900763358778626	46.0	1.4809160305343512	-97.0	-0.07228915662650603	1284.0	9.19277108433735	2053.0	0.2530120481927711	2026.0	-0.41363636363636364	455.0	-0.017272727272727273	-19.0	-0.2295918367346939	225.0	1.5228926416242188E12	1.522892641651E12	1308.59375	42880.0	0.0	0.0	
-0.6412213740458015	-15.0	0.22900763358778625	42.0	1.465648854961832	-96.0	-0.08433734939759037	1284.0	9.19277108433735	2054.0	0.2530120481927711	2026.0	-0.4218181818181818	464.0	-0.023636363636363636	-26.0	-0.22244897959183677	218.0	1.522892641628125E12	1.522892641659E12	1312.5	43008.0	0.0	0.0	
-0.6412213740458015	-24.0	0.366412213740458	42.0	1.4045801526717556	-92.0	-0.08433734939759037	1284.0	9.19277108433735	2054.0	0.24096385542168675	2027.0	-0.41818181818181815	460.0	-0.02	-22.0	-0.22755102040816327	223.0	1.5228926416320313E12	1.52289264166E12	1316.40625	43136.0	0.0	0.0	
-0.6717557251908397	-15.0	0.22900763358778625	44.0	1.6793893129770991	-110.0	-0.07228915662650603	1286.0	9.168674698795181	2053.0	0.21686746987951808	2029.0	-0.41454545454545455	456.0	-0.015454545454545455	-17.0	-0.22755102040816327	223.0	1.5228926416359375E12	1.522892641661E12	1320.3125	43264.0	0.0	0.0	
-0.4427480916030534	11.0	-0.16793893129770993	29.0	1.618320610687023	-106.0	0.08433734939759037	1287.0	9.156626506024097	2040.0	0.1927710843373494	2031.0	-0.41454545454545455	456.0	-0.015454545454545455	-17.0	-0.22755102040816327	223.0	1.5228926416398438E12	1.522892641663E12	1324.21875	43392.0	0.0	0.0	
-0.564885496183206	-1.0	0.015267175572519083	37.0	1.7404580152671756	-114.0	0.2530120481927711	1286.0	9.168674698795181	2026.0	0.1566265060240964	2034.0	-0.4209090909090909	463.0	-0.022727272727272728	-25.0	-0.22346938775510206	219.0	1.52289264164375E12	1.522892641663E12	1328.125	43520.0	0.0	0.0	
-0.2748091603053435	3.0	-0.04580152671755725	18.0	1.4351145038167938	-94.0	0.30120481927710846	1285.0	9.180722891566266	2022.0	0.0963855421686747	2039.0	-0.4209090909090909	463.0	-0.023636363636363636	-26.0	-0.23163265306122452	227.0	1.5228926416476563E12	1.522892641664E12	1332.03125	43648.0	0.0	0.0	
-0.3969465648854962	-8.0	0.12213740458015267	26.0	1.3129770992366412	-86.0	0.28915662650602414	1284.0	9.19277108433735	2023.0	0.0	2047.0	-0.41454545454545455	456.0	-0.01818181818181818	-20.0	-0.22551020408163266	221.0	1.5228926416515625E12	1.522892641665E12	1335.9375	43776.0	0.0	0.0	
-0.33587786259541985	-36.0	0.549618320610687	22.0	1.3587786259541985	-89.0	0.21686746987951808	1284.0	9.19277108433735	2029.0	-0.03614457831325302	2050.0	-0.41363636363636364	455.0	-0.008181818181818182	-9.0	-0.22346938775510206	219.0	1.5228926416554688E12	1.522892641666E12	1339.84375	43904.0	0.0	0.0	
-0.3053435114503817	-28.0	0.42748091603053434	20.0	1.2519083969465647	-82.0	0.14457831325301207	1281.0	9.228915662650603	2035.0	-0.07228915662650603	2053.0	-0.41363636363636364	455.0	-0.023636363636363636	-26.0	-0.22142857142857145	217.0	1.522892641659375E12	1.522892641667E12	1343.75	44032.0	0.0	0.0	
-0.5801526717557252	-35.0	0.5343511450381679	38.0	1.2061068702290076	-79.0	0.0963855421686747	1281.0	9.228915662650603	2039.0	-0.08433734939759037	2054.0	-0.4036363636363636	444.0	-0.015454545454545455	-17.0	-0.22653061224489798	222.0	1.5228926416632813E12	1.522892641675E12	1347.65625	44160.0	0.0	0.0	
-0.564885496183206	-32.0	0.48854961832061067	37.0	1.3587786259541985	-89.0	0.10843373493975904	1283.0	9.204819277108435	2038.0	-0.060240963855421686	2052.0	-0.4036363636363636	444.0	-0.015454545454545455	-17.0	-0.22653061224489798	222.0	1.5228926416671875E12	1.522892641676E12	1351.5625	44288.0	0.0	0.0	
-0.5801526717557252	-36.0	0.549618320610687	38.0	1.4961832061068703	-98.0	0.1927710843373494	1284.0	9.19277108433735	2031.0	-0.012048192771084338	2048.0	-0.41545454545454547	457.0	-0.025454545454545455	-28.0	-0.22448979591836737	220.0	1.5228926416710938E12	1.522892641677E12	1355.46875	44416.0	0.0	0.0	
-0.549618320610687	-41.0	0.6259541984732824	36.0	1.4351145038167938	-94.0	0.2530120481927711	1284.0	9.19277108433735	2026.0	0.024096385542168676	2045.0	-0.41363636363636364	455.0	-0.02727272727272727	-30.0	-0.22448979591836737	220.0	1.522892641675E12	1.522892641685E12	1359.375	44544.0	0.0	0.0	
-0.47328244274809156	-37.0	0.564885496183206	31.0	1.450381679389313	-95.0	0.26506024096385544	1287.0	9.156626506024097	2025.0	0.04819277108433735	2043.0	-0.41363636363636364	455.0	-0.014545454545454545	-16.0	-0.22448979591836737	220.0	1.5228926416789063E12	1.522892641686E12	1363.28125	44672.0	0.0	0.0	
-0.6870229007633587	-45.0	0.6870229007633587	45.0	1.282442748091603	-84.0	0.2530120481927711	1286.0	9.168674698795181	2026.0	0.04819277108433735	2043.0	-0.41818181818181815	460.0	-0.026363636363636363	-29.0	-0.22551020408163266	221.0	1.5228926416828125E12	1.522892641687E12	1367.1875	44800.0	0.0	0.0	
-0.564885496183206	-51.0	0.7786259541984732	37.0	1.083969465648855	-71.0	0.1927710843373494	1284.0	9.19277108433735	2031.0	0.060240963855421686	2042.0	-0.4090909090909091	450.0	-0.02090909090909091	-23.0	-0.22448979591836737	220.0	1.5228926416867188E12	1.522892641698E12	1371.09375	44928.0	0.0	0.0	
-0.7938931297709924	-32.0	0.48854961832061067	52.0	0.9007633587786259	-59.0	0.10843373493975904	1283.0	9.204819277108435	2038.0	0.07228915662650603	2041.0	-0.41545454545454547	457.0	-0.01	-11.0	-0.22448979591836737	220.0	1.522892641690625E12	1.522892641699E12	1375.0	45056.0	0.0	0.0	
-0.6717557251908397	-32.0	0.48854961832061067	44.0	0.9465648854961831	-62.0	0.07228915662650603	1284.0	9.19277108433735	2041.0	0.08433734939759037	2040.0	-0.41545454545454547	457.0	-0.01	-11.0	-0.22448979591836737	220.0	1.5228926416945313E12	1.5228926417E12	1378.90625	45184.0	0.0	0.0	
-0.564885496183206	-38.0	0.5801526717557252	37.0	1.2213740458015268	-80.0	0.024096385542168676	1284.0	9.19277108433735	2045.0	0.10843373493975904	2038.0	-0.4209090909090909	463.0	-0.02727272727272727	-30.0	-0.22551020408163266	221.0	1.5228926416984375E12	1.52289264171E12	1382.8125	45312.0	0.0	0.0	
-0.8244274809160305	-27.0	0.41221374045801523	54.0	1.114503816793893	-73.0	0.03614457831325302	1284.0	9.19277108433735	2044.0	0.12048192771084337	2037.0	-0.41454545454545455	456.0	-0.024545454545454544	-27.0	-0.22448979591836737	220.0	1.5228926417023438E12	1.522892641711E12	1386.71875	45440.0	0.0	0.0	
-0.5801526717557252	-35.0	0.5343511450381679	38.0	1.129770992366412	-74.0	0.060240963855421686	1285.0	9.180722891566266	2042.0	0.14457831325301207	2035.0	-0.4163636363636364	458.0	-0.011818181818181818	-13.0	-0.22755102040816327	223.0	1.52289264170625E12	1.522892641712E12	1390.625	45568.0	0.0	0.0	
-0.5801526717557252	-46.0	0.7022900763358778	38.0	1.282442748091603	-84.0	0.08433734939759037	1285.0	9.180722891566266	2040.0	0.10843373493975904	2038.0	-0.41545454545454547	457.0	-0.008181818181818182	-9.0	-0.2163265306122449	212.0	1.5228926417101563E12	1.522892641723E12	1394.53125	45696.0	0.0	0.0	
-0.564885496183206	-57.0	0.8702290076335878	37.0	1.1603053435114503	-76.0	0.08433734939759037	1284.0	9.19277108433735	2040.0	0.10843373493975904	2038.0	-0.4109090909090909	452.0	-0.013636363636363636	-15.0	-0.2295918367346939	225.0	1.5228926417140625E12	1.522892641723E12	1398.4375	45824.0	0.0	0.0	
-0.564885496183206	-60.0	0.916030534351145	37.0	1.0229007633587786	-67.0	0.012048192771084338	1286.0	9.168674698795181	2046.0	0.0963855421686747	2039.0	-0.4109090909090909	452.0	-0.013636363636363636	-15.0	-0.2295918367346939	225.0	1.5228926417179688E12	1.522892641724E12	1402.34375	45952.0	0.0	0.0	
-0.42748091603053434	-52.0	0.7938931297709924	28.0	1.0229007633587786	-67.0	-0.03614457831325302	1284.0	9.19277108433735	2050.0	0.060240963855421686	2042.0	-0.41454545454545455	456.0	-0.01	-11.0	-0.22653061224489798	222.0	1.522892641721875E12	1.522892641732E12	1406.25	46080.0	0.0	0.0	
-0.42748091603053434	-50.0	0.7633587786259541	28.0	1.2366412213740459	-81.0	-0.08433734939759037	1284.0	9.19277108433735	2054.0	0.07228915662650603	2041.0	-0.4118181818181818	453.0	-0.01	-11.0	-0.2285714285714286	224.0	1.5228926417257813E12	1.522892641733E12	1410.15625	46208.0	0.0	0.0	
-0.5343511450381679	-33.0	0.5038167938931297	35.0	1.2366412213740459	-81.0	-0.14457831325301207	1283.0	9.204819277108435	2059.0	0.03614457831325302	2044.0	-0.41	451.0	-0.017272727272727273	-19.0	-0.22755102040816327	223.0	1.5228926417296875E12	1.522892641734E12	1414.0625	46336.0	0.0	0.0	
-0.4427480916030534	-44.0	0.6717557251908397	29.0	1.1755725190839694	-77.0	-0.18072289156626506	1283.0	9.204819277108435	2062.0	0.07228915662650603	2041.0	-0.41545454545454547	457.0	-0.008181818181818182	-9.0	-0.22346938775510206	219.0	1.5228926417335938E12	1.522892641748E12	1417.96875	46464.0	0.0	0.0	
-0.5038167938931297	-36.0	0.549618320610687	33.0	1.3282442748091603	-87.0	-0.1927710843373494	1285.0	9.180722891566266	2063.0	0.060240963855421686	2042.0	-0.4209090909090909	463.0	-0.022727272727272728	-25.0	-0.22346938775510206	219.0	1.5228926417375E12	1.522892641748E12	1421.875	46592.0	0.0	0.0	
-0.5038167938931297	-28.0	0.42748091603053434	33.0	1.3740458015267174	-90.0	-0.16867469879518074	1286.0	9.168674698795181	2061.0	0.04819277108433735	2043.0	-0.4118181818181818	453.0	-0.01818181818181818	-20.0	-0.22755102040816327	223.0	1.5228926417414063E12	1.52289264175E12	1425.78125	46720.0	0.0	0.0	
-0.32061068702290074	-29.0	0.4427480916030534	21.0	1.2671755725190839	-83.0	-0.14457831325301207	1285.0	9.180722891566266	2059.0	0.07228915662650603	2041.0	-0.4118181818181818	453.0	-0.01818181818181818	-20.0	-0.22755102040816327	223.0	1.5228926417453125E12	1.522892641786E12	1429.6875	46848.0	0.0	0.0	
-0.48854961832061067	-12.0	0.183206106870229	32.0	1.4045801526717556	-92.0	-0.12048192771084337	1284.0	9.19277108433735	2057.0	0.060240963855421686	2042.0	-0.4118181818181818	453.0	-0.02727272727272727	-30.0	-0.22448979591836737	220.0	1.5228926417492188E12	1.522892641787E12	1433.59375	46976.0	0.0	0.0	
-0.42748091603053434	-10.0	0.15267175572519084	28.0	1.4961832061068703	-98.0	-0.10843373493975904	1284.0	9.19277108433735	2056.0	0.07228915662650603	2041.0	-0.4218181818181818	464.0	-0.02727272727272727	-30.0	-0.22346938775510206	219.0	1.522892641753125E12	1.522892641788E12	1437.5	47104.0	0.0	0.0	
-0.42748091603053434	-34.0	0.5190839694656488	28.0	1.465648854961832	-96.0	-0.12048192771084337	1285.0	9.180722891566266	2057.0	0.04819277108433735	2043.0	-0.4118181818181818	453.0	-0.026363636363636363	-29.0	-0.22653061224489798	222.0	1.5228926417570313E12	1.52289264179E12	1441.40625	47232.0	0.0	0.0	
-0.5343511450381679	-20.0	0.3053435114503817	35.0	1.4198473282442747	-93.0	-0.12048192771084337	1286.0	9.168674698795181	2057.0	0.04819277108433735	2043.0	-0.4090909090909091	450.0	-0.011818181818181818	-13.0	-0.22551020408163266	221.0	1.5228926417609375E12	1.522892641797E12	1445.3125	47360.0	0.0	0.0	
-0.4427480916030534	-22.0	0.33587786259541985	29.0	1.5114503816793892	-99.0	-0.0963855421686747	1286.0	9.168674698795181	2055.0	0.07228915662650603	2041.0	-0.41	451.0	-0.0036363636363636364	-4.0	-0.22346938775510206	219.0	1.5228926417648438E12	1.522892641798E12	1449.21875	47488.0	0.0	0.0	
-0.41221374045801523	-7.0	0.10687022900763359	27.0	1.618320610687023	-106.0	-0.07228915662650603	1285.0	9.180722891566266	2053.0	0.07228915662650603	2041.0	-0.41363636363636364	455.0	-0.025454545454545455	-28.0	-0.22755102040816327	223.0	1.52289264176875E12	1.522892641799E12	1453.125	47616.0	0.0	0.0	
-0.3511450381679389	-18.0	0.2748091603053435	23.0	1.5725190839694656	-103.0	0.0	1287.0	9.156626506024097	2047.0	0.03614457831325302	2044.0	-0.41363636363636364	455.0	-0.025454545454545455	-28.0	-0.22755102040816327	223.0	1.5228926417726563E12	1.5228926418E12	1457.03125	47744.0	0.0	0.0	
-0.366412213740458	-18.0	0.2748091603053435	24.0	1.5725190839694656	-103.0	0.060240963855421686	1283.0	9.204819277108435	2042.0	0.03614457831325302	2044.0	-0.4172727272727273	459.0	-0.014545454545454545	-16.0	-0.22142857142857145	217.0	1.5228926417765625E12	1.5228926418E12	1460.9375	47872.0	0.0	0.0	
-0.5038167938931297	-20.0	0.3053435114503817	33.0	1.5877862595419847	-104.0	0.060240963855421686	1284.0	9.19277108433735	2042.0	0.024096385542168676	2045.0	-0.41818181818181815	460.0	-0.02727272727272727	-30.0	-0.22653061224489798	222.0	1.5228926417804688E12	1.522892641801E12	1464.84375	48000.0	0.0	0.0	
-0.4427480916030534	-34.0	0.5190839694656488	29.0	1.5877862595419847	-104.0	0.03614457831325302	1284.0	9.19277108433735	2044.0	-0.04819277108433735	2051.0	-0.41545454545454547	457.0	-0.024545454545454544	-27.0	-0.22653061224489798	222.0	1.522892641784375E12	1.522892641802E12	1468.75	48128.0	0.0	0.0	
-0.5038167938931297	-34.0	0.5190839694656488	33.0	1.4045801526717556	-92.0	0.03614457831325302	1283.0	9.204819277108435	2044.0	-0.04819277108433735	2051.0	-0.4209090909090909	463.0	-0.015454545454545455	-17.0	-0.22244897959183677	218.0	1.5228926417882813E12	1.522892641803E12	1472.65625	48256.0	0.0	0.0	
-0.4580152671755725	-45.0	0.6870229007633587	30.0	1.4351145038167938	-94.0	0.03614457831325302	1283.0	9.204819277108435	2044.0	-0.04819277108433735	2051.0	-0.41818181818181815	460.0	-0.02727272727272727	-30.0	-0.2295918367346939	225.0	1.5228926417921875E12	1.522892641804E12	1476.5625	48384.0	0.0	0.0	
-0.38167938931297707	-51.0	0.7786259541984732	25.0	1.4809160305343512	-97.0	0.03614457831325302	1283.0	9.204819277108435	2044.0	-0.04819277108433735	2051.0	-0.4163636363636364	458.0	-0.022727272727272728	-25.0	-0.22551020408163266	221.0	1.5228926417960938E12	1.522892641805E12	1480.46875	48512.0	0.0	0.0	
-0.47328244274809156	-50.0	0.7633587786259541	31.0	1.4809160305343512	-97.0	0.03614457831325302	1284.0	9.19277108433735	2044.0	-0.060240963855421686	2052.0	-0.4163636363636364	458.0	-0.022727272727272728	-25.0	-0.22551020408163266	221.0	1.5228926418E12	1.522892641806E12	1484.375	48640.0	0.0	0.0	
-0.16793893129770993	-57.0	0.8702290076335878	11.0	1.5267175572519083	-100.0	0.0963855421686747	1283.0	9.204819277108435	2039.0	-0.060240963855421686	2052.0	-0.41	451.0	0.0018181818181818182	2.0	-0.22551020408163266	221.0	1.5228926418039063E12	1.522892641817E12	1488.28125	48768.0	0.0	0.0	
-0.3053435114503817	-55.0	0.8396946564885496	20.0	1.4961832061068703	-98.0	0.10843373493975904	1285.0	9.180722891566266	2038.0	-0.07228915662650603	2053.0	-0.41454545454545455	456.0	-0.014545454545454545	-16.0	-0.22040816326530616	216.0	1.5228926418078125E12	1.52289264182E12	1492.1875	48896.0	0.0	0.0	
-0.2748091603053435	-49.0	0.7480916030534351	18.0	1.5267175572519083	-100.0	0.0963855421686747	1284.0	9.19277108433735	2039.0	-0.10843373493975904	2056.0	-0.4127272727272727	454.0	-0.013636363636363636	-15.0	-0.22653061224489798	222.0	1.5228926418117188E12	1.522892641821E12	1496.09375	49024.0	0.0	0.0	
-0.41221374045801523	-59.0	0.9007633587786259	27.0	1.297709923664122	-85.0	0.07228915662650603	1283.0	9.204819277108435	2041.0	-0.12048192771084337	2057.0	-0.41909090909090907	461.0	-0.014545454545454545	-16.0	-0.22448979591836737	220.0	1.522892641815625E12	1.522892641822E12	1500.0	49152.0	0.0	0.0	
-0.4580152671755725	-73.0	1.114503816793893	30.0	1.4961832061068703	-98.0	0.024096385542168676	1284.0	9.19277108433735	2045.0	-0.13253012048192772	2058.0	-0.4118181818181818	453.0	-0.02090909090909091	-23.0	-0.22755102040816327	223.0	1.5228926418195313E12	1.522892641829E12	1503.90625	49280.0	0.0	0.0	
-0.32061068702290074	-46.0	0.7022900763358778	21.0	1.282442748091603	-84.0	0.0	1284.0	9.19277108433735	2047.0	-0.12048192771084337	2057.0	-0.4081818181818182	449.0	-0.019090909090909092	-21.0	-0.22448979591836737	220.0	1.5228926418234375E12	1.52289264183E12	1507.8125	49408.0	0.0	0.0	
-0.7633587786259541	-54.0	0.8244274809160305	50.0	1.2519083969465647	-82.0	0.0	1285.0	9.180722891566266	2047.0	-0.08433734939759037	2054.0	-0.4081818181818182	449.0	-0.019090909090909092	-21.0	-0.22448979591836737	220.0	1.5228926418273438E12	1.522892641831E12	1511.71875	49536.0	0.0	0.0	
-0.6564885496183206	-51.0	0.7786259541984732	43.0	1.450381679389313	-95.0	0.04819277108433735	1285.0	9.180722891566266	2043.0	-0.07228915662650603	2053.0	-0.41909090909090907	461.0	-0.019090909090909092	-21.0	-0.22448979591836737	220.0	1.52289264183125E12	1.522892641844E12	1515.625	49664.0	0.0	0.0	
-0.47328244274809156	-52.0	0.7938931297709924	31.0	1.5114503816793892	-99.0	0.060240963855421686	1286.0	9.168674698795181	2042.0	-0.04819277108433735	2051.0	-0.4163636363636364	458.0	-0.008181818181818182	-9.0	-0.22040816326530616	216.0	1.5228926418351563E12	1.522892641845E12	1519.53125	49792.0	0.0	0.0	
-0.5801526717557252	-56.0	0.8549618320610687	38.0	1.3587786259541985	-89.0	0.08433734939759037	1288.0	9.144578313253012	2040.0	-0.03614457831325302	2050.0	-0.4109090909090909	452.0	-0.016363636363636365	-18.0	-0.22346938775510206	219.0	1.5228926418390625E12	1.522892641846E12	1523.4375	49920.0	0.0	0.0	
-0.47328244274809156	-55.0	0.8396946564885496	31.0	1.3740458015267174	-90.0	0.07228915662650603	1285.0	9.180722891566266	2041.0	-0.0963855421686747	2055.0	-0.41	451.0	-0.022727272727272728	-25.0	-0.22551020408163266	221.0	1.5228926418429688E12	1.522892641852E12	1527.34375	50048.0	0.0	0.0	
-0.5954198473282443	-46.0	0.7022900763358778	39.0	1.5419847328244274	-101.0	0.0963855421686747	1284.0	9.19277108433735	2039.0	-0.10843373493975904	2056.0	-0.41363636363636364	455.0	-0.026363636363636363	-29.0	-0.2295918367346939	225.0	1.522892641846875E12	1.522892641853E12	1531.25	50176.0	0.0	0.0	
-0.6870229007633587	-68.0	1.0381679389312977	45.0	1.3740458015267174	-90.0	0.10843373493975904	1282.0	9.216867469879519	2038.0	-0.13253012048192772	2058.0	-0.41363636363636364	455.0	-0.016363636363636365	-18.0	-0.22448979591836737	220.0	1.5228926418507813E12	1.522892641855E12	1535.15625	50304.0	0.0	0.0	
-0.8091603053435115	-57.0	0.8702290076335878	53.0	1.5419847328244274	-101.0	0.060240963855421686	1284.0	9.19277108433735	2042.0	-0.13253012048192772	2058.0	-0.41363636363636364	455.0	-0.016363636363636365	-18.0	-0.22448979591836737	220.0	1.5228926418546875E12	1.522892641869E12	1539.0625	50432.0	0.0	0.0	
-0.916030534351145	-84.0	1.282442748091603	60.0	1.2519083969465647	-82.0	0.012048192771084338	1281.0	9.228915662650603	2046.0	-0.1566265060240964	2060.0	-0.4109090909090909	452.0	-0.0018181818181818182	-2.0	-0.22142857142857145	217.0	1.5228926418585938E12	1.52289264187E12	1542.96875	50560.0	0.0	0.0	
-0.8244274809160305	-74.0	1.129770992366412	54.0	1.3129770992366412	-86.0	-0.07228915662650603	1281.0	9.228915662650603	2053.0	-0.12048192771084337	2057.0	-0.4163636363636364	458.0	-0.025454545454545455	-28.0	-0.22755102040816327	223.0	1.5228926418625E12	1.522892641871E12	1546.875	50688.0	0.0	0.0	
-1.0076335877862594	-75.0	1.1450381679389312	66.0	1.4351145038167938	-94.0	-0.13253012048192772	1284.0	9.19277108433735	2058.0	-0.08433734939759037	2054.0	-0.42	462.0	-0.017272727272727273	-19.0	-0.22653061224489798	222.0	1.5228926418664063E12	1.522892641875E12	1550.78125	50816.0	0.0	0.0	
-0.7786259541984732	-71.0	1.083969465648855	51.0	1.5877862595419847	-104.0	-0.13253012048192772	1284.0	9.19277108433735	2058.0	-0.04819277108433735	2051.0	-0.42	462.0	-0.02181818181818182	-24.0	-0.22142857142857145	217.0	1.5228926418703125E12	1.522892641876E12	1554.6875	50944.0	0.0	0.0	
-0.9770992366412213	-81.0	1.2366412213740459	64.0	1.5725190839694656	-103.0	-0.0963855421686747	1284.0	9.19277108433735	2055.0	-0.024096385542168676	2049.0	-0.4109090909090909	452.0	-0.015454545454545455	-17.0	-0.22448979591836737	220.0	1.5228926418742188E12	1.522892641877E12	1558.59375	51072.0	0.0	0.0	
-0.9465648854961831	-66.0	1.0076335877862594	62.0	1.7099236641221374	-112.0	-0.060240963855421686	1283.0	9.204819277108435	2052.0	-0.012048192771084338	2048.0	-0.4109090909090909	452.0	-0.015454545454545455	-17.0	-0.22448979591836737	220.0	1.522892641878125E12	1.522892641892E12	1562.5	51200.0	0.0	0.0	
-0.916030534351145	-68.0	1.0381679389312977	60.0	1.7099236641221374	-112.0	-0.060240963855421686	1283.0	9.204819277108435	2052.0	0.012048192771084338	2046.0	-0.41363636363636364	455.0	-0.01090909090909091	-12.0	-0.22142857142857145	217.0	1.5228926418820313E12	1.522892641893E12	1566.40625	51328.0	0.0	0.0	
-0.8854961832061068	-69.0	1.0534351145038168	58.0	1.6793893129770991	-110.0	-0.060240963855421686	1284.0	9.19277108433735	2052.0	0.03614457831325302	2044.0	-0.4172727272727273	459.0	-0.022727272727272728	-25.0	-0.22346938775510206	219.0	1.5228926418859375E12	1.522892641895E12	1570.3125	51456.0	0.0	0.0	
-1.129770992366412	-49.0	0.7480916030534351	74.0	1.4351145038167938	-94.0	-0.08433734939759037	1284.0	9.19277108433735	2054.0	0.08433734939759037	2040.0	-0.41545454545454547	457.0	-0.01090909090909091	-12.0	-0.21938775510204084	215.0	1.5228926418898438E12	1.522892641903E12	1574.21875	51584.0	0.0	0.0	
-0.7938931297709924	-50.0	0.7633587786259541	52.0	1.6030534351145038	-105.0	-0.08433734939759037	1285.0	9.180722891566266	2054.0	0.10843373493975904	2038.0	-0.4127272727272727	454.0	-0.011818181818181818	-13.0	-0.22551020408163266	221.0	1.52289264189375E12	1.522892641903E12	1578.125	51712.0	0.0	0.0	
-0.6412213740458015	-28.0	0.42748091603053434	42.0	1.66412213740458	-109.0	-0.04819277108433735	1283.0	9.204819277108435	2051.0	0.13253012048192772	2036.0	-0.41909090909090907	461.0	-0.023636363636363636	-26.0	-0.22244897959183677	218.0	1.5228926418976563E12	1.522892641904E12	1582.03125	51840.0	0.0	0.0	
-0.6106870229007634	-28.0	0.42748091603053434	40.0	1.7709923664122136	-116.0	-0.024096385542168676	1285.0	9.180722891566266	2049.0	0.0963855421686747	2039.0	-0.41454545454545455	456.0	-0.016363636363636365	-18.0	-0.22040816326530616	216.0	1.5228926419015625E12	1.522892641937E12	1585.9375	51968.0	0.0	0.0	
-0.7938931297709924	-29.0	0.4427480916030534	52.0	1.8015267175572518	-118.0	0.0	1285.0	9.180722891566266	2047.0	0.08433734939759037	2040.0	-0.41454545454545455	456.0	-0.016363636363636365	-18.0	-0.22040816326530616	216.0	1.5228926419054688E12	1.522892641938E12	1589.84375	52096.0	0.0	0.0	
-0.549618320610687	-33.0	0.5038167938931297	36.0	1.7709923664122136	-116.0	0.012048192771084338	1282.0	9.216867469879519	2046.0	0.03614457831325302	2044.0	-0.41	451.0	-0.01090909090909091	-12.0	-0.22346938775510206	219.0	1.522892641909375E12	1.52289264194E12	1593.75	52224.0	0.0	0.0	
-0.5343511450381679	-30.0	0.4580152671755725	35.0	1.66412213740458	-109.0	0.012048192771084338	1284.0	9.19277108433735	2046.0	-0.012048192771084338	2048.0	-0.4163636363636364	458.0	-0.025454545454545455	-28.0	-0.22448979591836737	220.0	1.5228926419132813E12	1.522892641941E12	1597.65625	52352.0	0.0	0.0	
-0.6106870229007634	-40.0	0.6106870229007634	40.0	1.8015267175572518	-118.0	0.012048192771084338	1284.0	9.19277108433735	2046.0	-0.012048192771084338	2048.0	-0.4163636363636364	458.0	-0.008181818181818182	-9.0	-0.22040816326530616	216.0	1.5228926419171875E12	1.522892641942E12	1601.5625	52480.0	0.0	0.0	
-0.9618320610687022	-24.0	0.366412213740458	63.0	1.8778625954198473	-123.0	0.012048192771084338	1285.0	9.180722891566266	2046.0	-0.03614457831325302	2050.0	-0.4163636363636364	458.0	-0.00909090909090909	-10.0	-0.21938775510204084	215.0	1.5228926419210938E12	1.522892641943E12	1605.46875	52608.0	0.0	0.0	
-0.732824427480916	-24.0	0.366412213740458	48.0	1.8625954198473282	-122.0	0.04819277108433735	1287.0	9.156626506024097	2043.0	-0.060240963855421686	2052.0	-0.41909090909090907	461.0	-0.02727272727272727	-30.0	-0.22551020408163266	221.0	1.522892641925E12	1.522892641944E12	1609.375	52736.0	0.0	0.0	
-0.5954198473282443	-17.0	0.2595419847328244	39.0	2.045801526717557	-134.0	0.1566265060240964	1286.0	9.168674698795181	2034.0	-0.04819277108433735	2051.0	-0.4127272727272727	454.0	-0.015454545454545455	-17.0	-0.22755102040816327	223.0	1.5228926419289063E12	1.522892641945E12	1613.28125	52864.0	0.0	0.0	
-0.6717557251908397	-32.0	0.48854961832061067	44.0	1.9389312977099236	-127.0	0.2530120481927711	1285.0	9.180722891566266	2026.0	-0.060240963855421686	2052.0	-0.4127272727272727	454.0	-0.015454545454545455	-17.0	-0.22755102040816327	223.0	1.5228926419328125E12	1.522892641946E12	1617.1875	52992.0	0.0	0.0	
-0.9007633587786259	-33.0	0.5038167938931297	59.0	1.7862595419847327	-117.0	0.26506024096385544	1283.0	9.204819277108435	2025.0	-0.0963855421686747	2055.0	-0.41454545454545455	456.0	-0.008181818181818182	-9.0	-0.22142857142857145	217.0	1.5228926419367188E12	1.522892641947E12	1621.09375	53120.0	0.0	0.0	
-0.7786259541984732	-58.0	0.8854961832061068	51.0	1.648854961832061	-108.0	0.18072289156626506	1284.0	9.19277108433735	2032.0	-0.13253012048192772	2058.0	-0.4172727272727273	459.0	-0.025454545454545455	-28.0	-0.22040816326530616	216.0	1.522892641940625E12	1.522892641948E12	1625.0	53248.0	0.0	0.0	
-0.6717557251908397	-61.0	0.9312977099236641	44.0	1.4809160305343512	-97.0	0.08433734939759037	1281.0	9.228915662650603	2040.0	-0.1566265060240964	2060.0	-0.4118181818181818	453.0	-0.01818181818181818	-20.0	-0.2306122448979592	226.0	1.5228926419445313E12	1.522892641949E12	1628.90625	53376.0	0.0	0.0	
-0.8244274809160305	-71.0	1.083969465648855	54.0	1.5725190839694656	-103.0	0.012048192771084338	1281.0	9.228915662650603	2046.0	-0.1927710843373494	2063.0	-0.4127272727272727	454.0	-0.017272727272727273	-19.0	-0.22653061224489798	222.0	1.5228926419484375E12	1.522892641959E12	1632.8125	53504.0	0.0	0.0	
-0.9312977099236641	-49.0	0.7480916030534351	61.0	1.6335877862595418	-107.0	-0.012048192771084338	1282.0	9.216867469879519	2048.0	-0.18072289156626506	2062.0	-0.4072727272727273	448.0	-0.007272727272727273	-8.0	-0.22551020408163266	221.0	1.5228926419523438E12	1.52289264196E12	1636.71875	53632.0	0.0	0.0	
-0.9770992366412213	-71.0	1.083969465648855	64.0	1.7099236641221374	-112.0	0.0	1284.0	9.19277108433735	2047.0	-0.13253012048192772	2058.0	-0.41545454545454547	457.0	-0.017272727272727273	-19.0	-0.22448979591836737	220.0	1.52289264195625E12	1.522892641962E12	1640.625	53760.0	0.0	0.0	
-1.129770992366412	-59.0	0.9007633587786259	74.0	1.7557251908396947	-115.0	0.060240963855421686	1284.0	9.19277108433735	2042.0	-0.08433734939759037	2054.0	-0.41545454545454547	457.0	-0.017272727272727273	-19.0	-0.22448979591836737	220.0	1.5228926419601563E12	1.522892641979E12	1644.53125	53888.0	0.0	0.0	
-1.129770992366412	-55.0	0.8396946564885496	74.0	1.6946564885496183	-111.0	0.060240963855421686	1283.0	9.204819277108435	2042.0	-0.024096385542168676	2049.0	-0.4163636363636364	458.0	-0.01090909090909091	-12.0	-0.22346938775510206	219.0	1.5228926419640625E12	1.52289264198E12	1648.4375	54016.0	0.0	0.0	
-1.2671755725190839	-56.0	0.8549618320610687	83.0	1.6946564885496183	-111.0	0.060240963855421686	1285.0	9.180722891566266	2042.0	0.024096385542168676	2045.0	-0.41818181818181815	460.0	-0.023636363636363636	-26.0	-0.22346938775510206	219.0	1.5228926419679688E12	1.52289264198E12	1652.34375	54144.0	0.0	0.0	
-1.0687022900763359	-65.0	0.9923664122137404	70.0	1.7709923664122136	-116.0	0.012048192771084338	1285.0	9.180722891566266	2046.0	0.04819277108433735	2043.0	-0.4127272727272727	454.0	-0.014545454545454545	-16.0	-0.22653061224489798	222.0	1.522892641971875E12	1.522892641989E12	1656.25	54272.0	0.0	0.0	
-0.9923664122137404	-34.0	0.5190839694656488	65.0	1.66412213740458	-109.0	0.0	1285.0	9.180722891566266	2047.0	0.07228915662650603	2041.0	-0.41363636363636364	455.0	-0.011818181818181818	-13.0	-0.22244897959183677	218.0	1.5228926419757813E12	1.52289264199E12	1660.15625	54400.0	0.0	0.0	
-1.114503816793893	-30.0	0.4580152671755725	73.0	1.6946564885496183	-111.0	-0.03614457831325302	1284.0	9.19277108433735	2050.0	0.12048192771084337	2037.0	-0.42	462.0	-0.026363636363636363	-29.0	-0.22244897959183677	218.0	1.5228926419796875E12	1.522892641991E12	1664.0625	54528.0	0.0	0.0	
-1.083969465648855	-21.0	0.32061068702290074	71.0	1.6793893129770991	-110.0	-0.04819277108433735	1285.0	9.180722891566266	2051.0	0.16867469879518074	2033.0	-0.41363636363636364	455.0	-0.016363636363636365	-18.0	-0.22755102040816327	223.0	1.5228926419835938E12	1.522892641992E12	1667.96875	54656.0	0.0	0.0	
-0.9312977099236641	-11.0	0.16793893129770993	61.0	1.5419847328244274	-101.0	-0.03614457831325302	1283.0	9.204819277108435	2050.0	0.21686746987951808	2029.0	-0.41363636363636364	455.0	-0.016363636363636365	-18.0	-0.22755102040816327	223.0	1.5228926419875E12	1.522892641994E12	1671.875	54784.0	0.0	0.0	
-0.8854961832061068	-2.0	0.030534351145038167	58.0	1.6946564885496183	-111.0	-0.012048192771084338	1285.0	9.180722891566266	2048.0	0.26506024096385544	2025.0	-0.4172727272727273	459.0	-0.011818181818181818	-13.0	-0.22346938775510206	219.0	1.5228926419914063E12	1.522892641995E12	1675.78125	54912.0	0.0	0.0	
-0.7938931297709924	1.0	-0.015267175572519083	52.0	1.9083969465648853	-125.0	0.0	1285.0	9.180722891566266	2047.0	0.30120481927710846	2022.0	-0.41909090909090907	461.0	-0.026363636363636363	-29.0	-0.22244897959183677	218.0	1.5228926419953125E12	1.522892642009E12	1679.6875	55040.0	0.0	0.0	
-0.6259541984732824	9.0	-0.13740458015267176	41.0	1.8015267175572518	-118.0	0.03614457831325302	1287.0	9.156626506024097	2044.0	0.28915662650602414	2023.0	-0.41	451.0	-0.015454545454545455	-17.0	-0.22755102040816327	223.0	1.5228926419992188E12	1.522892642011E12	1683.59375	55168.0	0.0	0.0	
-0.732824427480916	36.0	-0.549618320610687	48.0	2.0	-131.0	0.10843373493975904	1289.0	9.132530120481928	2038.0	0.21686746987951808	2029.0	-0.41818181818181815	460.0	-0.02	-22.0	-0.22551020408163266	221.0	1.522892642003125E12	1.522892642011E12	1687.5	55296.0	0.0	0.0	
-0.366412213740458	34.0	-0.5190839694656488	24.0	1.8778625954198473	-123.0	0.2530120481927711	1287.0	9.156626506024097	2026.0	0.14457831325301207	2035.0	-0.41818181818181815	460.0	-0.028181818181818183	-31.0	-0.22244897959183677	218.0	1.5228926420070313E12	1.522892642016E12	1691.40625	55424.0	0.0	0.0	
-0.38167938931297707	31.0	-0.47328244274809156	25.0	1.9541984732824427	-128.0	0.39759036144578314	1287.0	9.156626506024097	2014.0	0.04819277108433735	2043.0	-0.41818181818181815	460.0	-0.02	-22.0	-0.22653061224489798	222.0	1.5228926420109375E12	1.522892642018E12	1695.3125	55552.0	0.0	0.0	
-0.3511450381679389	2.0	-0.030534351145038167	23.0	1.6030534351145038	-105.0	0.43373493975903615	1285.0	9.180722891566266	2011.0	-0.060240963855421686	2052.0	-0.4118181818181818	453.0	-0.02	-22.0	-0.22653061224489798	222.0	1.5228926420148438E12	1.522892642019E12	1699.21875	55680.0	0.0	0.0	
-0.564885496183206	-12.0	0.183206106870229	37.0	1.0687022900763359	-70.0	0.3373493975903615	1281.0	9.228915662650603	2019.0	-0.18072289156626506	2062.0	-0.4163636363636364	458.0	-0.011818181818181818	-13.0	-0.22244897959183677	218.0	1.52289264201875E12	1.522892642036E12	1703.125	55808.0	0.0	0.0	
-0.48854961832061067	-40.0	0.6106870229007634	32.0	1.2519083969465647	-82.0	0.20481927710843376	1280.0	9.240963855421688	2030.0	-0.24096385542168675	2067.0	-0.41	451.0	-0.01090909090909091	-12.0	-0.22653061224489798	222.0	1.5228926420226563E12	1.522892642037E12	1707.03125	55936.0	0.0	0.0	
-0.7480916030534351	-47.0	0.7175572519083969	49.0	1.4961832061068703	-98.0	0.12048192771084337	1281.0	9.228915662650603	2037.0	-0.27710843373493976	2070.0	-0.4118181818181818	453.0	-0.02090909090909091	-23.0	-0.2285714285714286	224.0	1.5228926420265625E12	1.522892642039E12	1710.9375	56064.0	0.0	0.0	
-0.6412213740458015	-48.0	0.732824427480916	42.0	1.4351145038167938	-94.0	0.0963855421686747	1282.0	9.216867469879519	2039.0	-0.26506024096385544	2069.0	-0.4172727272727273	459.0	-0.02727272727272727	-30.0	-0.22142857142857145	217.0	1.5228926420304688E12	1.522892642042E12	1714.84375	56192.0	0.0	0.0	
-0.916030534351145	-47.0	0.7175572519083969	60.0	1.9236641221374045	-126.0	0.14457831325301207	1283.0	9.204819277108435	2035.0	-0.22891566265060243	2066.0	-0.41818181818181815	460.0	-0.008181818181818182	-9.0	-0.2142857142857143	210.0	1.522892642034375E12	1.522892642043E12	1718.75	56320.0	0.0	0.0	
-1.1908396946564885	-44.0	0.6717557251908397	78.0	1.648854961832061	-108.0	0.2530120481927711	1284.0	9.19277108433735	2026.0	-0.20481927710843376	2064.0	-0.41818181818181815	460.0	-0.008181818181818182	-9.0	-0.2142857142857143	210.0	1.5228926420382813E12	1.522892642043E12	1722.65625	56448.0	0.0	0.0	
-0.9618320610687022	-57.0	0.8702290076335878	63.0	1.4198473282442747	-93.0	0.28915662650602414	1286.0	9.168674698795181	2023.0	-0.16867469879518074	2061.0	-0.4118181818181818	453.0	-0.02090909090909091	-23.0	-0.22755102040816327	223.0	1.5228926420421875E12	1.522892642051E12	1726.5625	56576.0	0.0	0.0	
-1.0229007633587786	-69.0	1.0534351145038168	67.0	1.3740458015267174	-90.0	0.22891566265060243	1285.0	9.180722891566266	2028.0	-0.18072289156626506	2062.0	-0.4172727272727273	459.0	-0.017272727272727273	-19.0	-0.22142857142857145	217.0	1.5228926420460938E12	1.522892642052E12	1730.46875	56704.0	0.0	0.0	
-0.8854961832061068	-61.0	0.9312977099236641	58.0	1.114503816793893	-73.0	0.13253012048192772	1284.0	9.19277108433735	2036.0	-0.18072289156626506	2062.0	-0.4163636363636364	458.0	-0.01090909090909091	-12.0	-0.21938775510204084	215.0	1.52289264205E12	1.522892642053E12	1734.375	56832.0	0.0	0.0	
-1.099236641221374	-82.0	1.2519083969465647	72.0	1.099236641221374	-72.0	0.0	1283.0	9.204819277108435	2047.0	-0.1566265060240964	2060.0	-0.41454545454545455	456.0	-0.02090909090909091	-23.0	-0.22142857142857145	217.0	1.5228926420539063E12	1.522892642055E12	1738.28125	56960.0	0.0	0.0	
-1.2366412213740459	-71.0	1.083969465648855	81.0	0.9465648854961831	-62.0	-0.060240963855421686	1283.0	9.204819277108435	2052.0	-0.07228915662650603	2053.0	-0.4209090909090909	463.0	-0.016363636363636365	-18.0	-0.22040816326530616	216.0	1.5228926420578125E12	1.522892642091E12	1742.1875	57088.0	0.0	0.0	
-1.3893129770992365	-63.0	0.9618320610687022	91.0	1.2061068702290076	-79.0	-0.10843373493975904	1285.0	9.180722891566266	2056.0	0.012048192771084338	2046.0	-0.41818181818181815	460.0	-0.024545454545454544	-27.0	-0.22551020408163266	221.0	1.5228926420617188E12	1.522892642091E12	1746.09375	57216.0	0.0	0.0	
-1.5572519083969465	-56.0	0.8549618320610687	102.0	1.1450381679389312	-75.0	-0.10843373493975904	1284.0	9.19277108433735	2056.0	0.0963855421686747	2039.0	-0.41818181818181815	460.0	-0.024545454545454544	-27.0	-0.22551020408163266	221.0	1.522892642065625E12	1.522892642092E12	1750.0	57344.0	0.0	0.0	
-1.3893129770992365	-61.0	0.9312977099236641	91.0	1.2519083969465647	-82.0	-0.08433734939759037	1285.0	9.180722891566266	2054.0	0.1566265060240964	2034.0	-0.41454545454545455	456.0	-0.025454545454545455	-28.0	-0.22244897959183677	218.0	1.5228926420695313E12	1.522892642093E12	1753.90625	57472.0	0.0	0.0	
-1.0381679389312977	-59.0	0.9007633587786259	68.0	1.3435114503816794	-88.0	-0.08433734939759037	1285.0	9.180722891566266	2054.0	0.20481927710843376	2030.0	-0.41909090909090907	461.0	-0.015454545454545455	-17.0	-0.22142857142857145	217.0	1.5228926420734375E12	1.522892642094E12	1757.8125	57600.0	0.0	0.0	
-1.297709923664122	-67.0	1.0229007633587786	85.0	1.5572519083969465	-102.0	-0.10843373493975904	1285.0	9.180722891566266	2056.0	0.21686746987951808	2029.0	-0.4163636363636364	458.0	-0.028181818181818183	-31.0	-0.22653061224489798	222.0	1.5228926420773438E12	1.522892642095E12	1761.71875	57728.0	0.0	0.0	
-1.2213740458015268	-70.0	1.0687022900763359	80.0	1.4961832061068703	-98.0	-0.14457831325301207	1286.0	9.168674698795181	2059.0	0.22891566265060243	2028.0	-0.4127272727272727	454.0	-0.025454545454545455	-28.0	-0.22448979591836737	220.0	1.52289264208125E12	1.522892642097E12	1765.625	57856.0	0.0	0.0	
-1.2061068702290076	-45.0	0.6870229007633587	79.0	1.6335877862595418	-107.0	-0.16867469879518074	1285.0	9.180722891566266	2061.0	0.22891566265060243	2028.0	-0.42	462.0	-0.017272727272727273	-19.0	-0.22448979591836737	220.0	1.5228926420851563E12	1.522892642098E12	1769.53125	57984.0	0.0	0.0	
-1.1603053435114503	-46.0	0.7022900763358778	76.0	1.450381679389313	-95.0	-0.14457831325301207	1286.0	9.168674698795181	2059.0	0.26506024096385544	2025.0	-0.41909090909090907	461.0	-0.024545454545454544	-27.0	-0.22551020408163266	221.0	1.5228926420890625E12	1.522892642099E12	1773.4375	58112.0	0.0	0.0	
-1.1450381679389312	-29.0	0.4427480916030534	75.0	1.6335877862595418	-107.0	-0.08433734939759037	1287.0	9.156626506024097	2054.0	0.28915662650602414	2023.0	-0.41909090909090907	461.0	-0.024545454545454544	-27.0	-0.22551020408163266	221.0	1.5228926420929688E12	1.522892642107E12	1777.34375	58240.0	0.0	0.0	
-1.2061068702290076	-29.0	0.4427480916030534	79.0	1.6793893129770991	-110.0	0.0	1286.0	9.168674698795181	2047.0	0.28915662650602414	2023.0	-0.41454545454545455	456.0	-0.023636363636363636	-26.0	-0.22653061224489798	222.0	1.522892642096875E12	1.522892642107E12	1781.25	58368.0	0.0	0.0	
-0.8244274809160305	-28.0	0.42748091603053434	54.0	1.4351145038167938	-94.0	0.03614457831325302	1284.0	9.19277108433735	2044.0	0.27710843373493976	2024.0	-0.41818181818181815	460.0	-0.014545454545454545	-16.0	-0.22244897959183677	218.0	1.5228926421007813E12	1.522892642108E12	1785.15625	58496.0	0.0	0.0	
-0.6564885496183206	-19.0	0.2900763358778626	43.0	1.648854961832061	-108.0	0.03614457831325302	1282.0	9.216867469879519	2044.0	0.2530120481927711	2026.0	-0.41363636363636364	455.0	-0.007272727272727273	-8.0	-0.22142857142857145	217.0	1.5228926421046875E12	1.522892642115E12	1789.0625	58624.0	0.0	0.0	
-0.8091603053435115	-30.0	0.4580152671755725	53.0	1.618320610687023	-106.0	0.024096385542168676	1282.0	9.216867469879519	2045.0	0.20481927710843376	2030.0	-0.41363636363636364	455.0	-0.01	-11.0	-0.21734693877551023	213.0	1.5228926421085938E12	1.522892642116E12	1792.96875	58752.0	0.0	0.0	
-0.6106870229007634	-22.0	0.33587786259541985	40.0	1.5114503816793892	-99.0	0.03614457831325302	1282.0	9.216867469879519	2044.0	0.1927710843373494	2031.0	-0.4090909090909091	450.0	0.0027272727272727275	3.0	-0.22346938775510206	219.0	1.5228926421125E12	1.522892642117E12	1796.875	58880.0	0.0	0.0	
-0.6106870229007634	-20.0	0.3053435114503817	40.0	1.7557251908396947	-115.0	0.08433734939759037	1283.0	9.204819277108435	2040.0	0.14457831325301207	2035.0	-0.41363636363636364	455.0	-0.02	-22.0	-0.22551020408163266	221.0	1.5228926421164063E12	1.52289264213E12	1800.78125	59008.0	0.0	0.0	
-0.4580152671755725	-26.0	0.3969465648854962	30.0	1.7251908396946565	-113.0	0.12048192771084337	1283.0	9.204819277108435	2037.0	0.10843373493975904	2038.0	-0.41363636363636364	455.0	-0.02	-22.0	-0.22551020408163266	221.0	1.5228926421203125E12	1.522892642131E12	1804.6875	59136.0	0.0	0.0	
-0.549618320610687	-34.0	0.5190839694656488	36.0	1.7862595419847327	-117.0	0.1927710843373494	1285.0	9.180722891566266	2031.0	0.08433734939759037	2040.0	-0.4109090909090909	452.0	-0.017272727272727273	-19.0	-0.22551020408163266	221.0	1.5228926421242188E12	1.522892642132E12	1808.59375	59264.0	0.0	0.0	
-0.4427480916030534	-26.0	0.3969465648854962	29.0	1.4961832061068703	-98.0	0.1927710843373494	1285.0	9.180722891566266	2031.0	0.060240963855421686	2042.0	-0.41818181818181815	460.0	-0.017272727272727273	-19.0	-0.22244897959183677	218.0	1.522892642128125E12	1.52289264214E12	1812.5	59392.0	0.0	0.0	
-0.4427480916030534	-40.0	0.6106870229007634	29.0	1.618320610687023	-106.0	0.21686746987951808	1284.0	9.19277108433735	2029.0	0.024096385542168676	2045.0	-0.4163636363636364	458.0	-0.017272727272727273	-19.0	-0.21836734693877552	214.0	1.5228926421320313E12	1.522892642141E12	1816.40625	59520.0	0.0	0.0	
-0.6564885496183206	-35.0	0.5343511450381679	43.0	1.4961832061068703	-98.0	0.16867469879518074	1285.0	9.180722891566266	2033.0	-0.024096385542168676	2049.0	-0.41363636363636364	455.0	-0.017272727272727273	-19.0	-0.22346938775510206	219.0	1.5228926421359375E12	1.522892642142E12	1820.3125	59648.0	0.0	0.0	
-0.21374045801526717	-34.0	0.5190839694656488	14.0	1.3435114503816794	-88.0	0.12048192771084337	1284.0	9.19277108433735	2037.0	-0.060240963855421686	2052.0	-0.42	462.0	-0.01818181818181818	-20.0	-0.22142857142857145	217.0	1.5228926421398438E12	1.522892642151E12	1824.21875	59776.0	0.0	0.0	
-0.38167938931297707	-46.0	0.7022900763358778	25.0	1.4045801526717556	-92.0	0.08433734939759037	1284.0	9.19277108433735	2040.0	-0.08433734939759037	2054.0	-0.4163636363636364	458.0	-0.024545454545454544	-27.0	-0.2295918367346939	225.0	1.52289264214375E12	1.522892642152E12	1828.125	59904.0	0.0	0.0	
-0.6106870229007634	-27.0	0.41221374045801523	40.0	1.5419847328244274	-101.0	0.03614457831325302	1283.0	9.204819277108435	2044.0	-0.0963855421686747	2055.0	-0.4163636363636364	458.0	-0.024545454545454544	-27.0	-0.2295918367346939	225.0	1.5228926421476563E12	1.522892642153E12	1832.03125	60032.0	0.0	0.0	
-0.564885496183206	-43.0	0.6564885496183206	37.0	1.4961832061068703	-98.0	0.04819277108433735	1286.0	9.168674698795181	2043.0	-0.10843373493975904	2056.0	-0.41	451.0	-0.014545454545454545	-16.0	-0.22551020408163266	221.0	1.5228926421515625E12	1.522892642159E12	1835.9375	60160.0	0.0	0.0	
-0.6564885496183206	-46.0	0.7022900763358778	43.0	1.450381679389313	-95.0	0.04819277108433735	1284.0	9.19277108433735	2043.0	-0.08433734939759037	2054.0	-0.41	451.0	-0.02	-22.0	-0.22346938775510206	219.0	1.5228926421554688E12	1.52289264216E12	1839.84375	60288.0	0.0	0.0	
-0.7175572519083969	-43.0	0.6564885496183206	47.0	1.5572519083969465	-102.0	0.03614457831325302	1286.0	9.168674698795181	2044.0	-0.060240963855421686	2052.0	-0.41818181818181815	460.0	-0.03090909090909091	-34.0	-0.22448979591836737	220.0	1.522892642159375E12	1.522892642165E12	1843.75	60416.0	0.0	0.0	
-0.8854961832061068	-47.0	0.7175572519083969	58.0	1.465648854961832	-96.0	-0.012048192771084338	1285.0	9.180722891566266	2048.0	-0.04819277108433735	2051.0	-0.41363636363636364	455.0	-0.013636363636363636	-15.0	-0.22040816326530616	216.0	1.5228926421632813E12	1.522892642175E12	1847.65625	60544.0	0.0	0.0	
-0.8396946564885496	-68.0	1.0381679389312977	55.0	1.648854961832061	-108.0	-0.07228915662650603	1285.0	9.180722891566266	2053.0	-0.03614457831325302	2050.0	-0.4109090909090909	452.0	-0.011818181818181818	-13.0	-0.22244897959183677	218.0	1.5228926421671875E12	1.522892642176E12	1851.5625	60672.0	0.0	0.0	
-0.8702290076335878	-60.0	0.916030534351145	57.0	1.6793893129770991	-110.0	-0.12048192771084337	1285.0	9.180722891566266	2057.0	-0.012048192771084338	2048.0	-0.4109090909090909	452.0	-0.011818181818181818	-13.0	-0.22244897959183677	218.0	1.5228926421710938E12	1.522892642177E12	1855.46875	60800.0	0.0	0.0	
-0.9007633587786259	-41.0	0.6259541984732824	59.0	1.7099236641221374	-112.0	-0.13253012048192772	1285.0	9.180722891566266	2058.0	0.024096385542168676	2045.0	-0.41818181818181815	460.0	-0.00909090909090909	-10.0	-0.21938775510204084	215.0	1.522892642175E12	1.522892642184E12	1859.375	60928.0	0.0	0.0	
-0.9770992366412213	-35.0	0.5343511450381679	64.0	1.7251908396946565	-113.0	-0.060240963855421686	1286.0	9.168674698795181	2052.0	0.07228915662650603	2041.0	-0.41454545454545455	456.0	-0.00909090909090909	-10.0	-0.22448979591836737	220.0	1.5228926421789063E12	1.522892642185E12	1863.28125	61056.0	0.0	0.0	
-0.9465648854961831	-19.0	0.2900763358778626	62.0	1.7709923664122136	-116.0	0.08433734939759037	1286.0	9.168674698795181	2040.0	0.12048192771084337	2037.0	-0.4172727272727273	459.0	-0.02	-22.0	-0.22244897959183677	218.0	1.5228926421828125E12	1.522892642191E12	1867.1875	61184.0	0.0	0.0	
-0.7633587786259541	-31.0	0.47328244274809156	50.0	1.7709923664122136	-116.0	0.13253012048192772	1286.0	9.168674698795181	2036.0	0.1566265060240964	2034.0	-0.42	462.0	-0.028181818181818183	-31.0	-0.2285714285714286	224.0	1.5228926421867188E12	1.5228926422E12	1871.09375	61312.0	0.0	0.0	
-0.7633587786259541	-33.0	0.5038167938931297	50.0	1.3129770992366412	-86.0	0.12048192771084337	1283.0	9.204819277108435	2037.0	0.1566265060240964	2034.0	-0.41454545454545455	456.0	-0.011818181818181818	-13.0	-0.22448979591836737	220.0	1.522892642190625E12	1.522892642201E12	1875.0	61440.0	0.0	0.0	
-0.7633587786259541	-39.0	0.5954198473282443	50.0	1.465648854961832	-96.0	0.04819277108433735	1285.0	9.180722891566266	2043.0	0.14457831325301207	2035.0	-0.41818181818181815	460.0	-0.024545454545454544	-27.0	-0.22346938775510206	219.0	1.5228926421945313E12	1.522892642202E12	1878.90625	61568.0	0.0	0.0	
-0.6717557251908397	-16.0	0.24427480916030533	44.0	1.3740458015267174	-90.0	0.0	1284.0	9.19277108433735	2047.0	0.12048192771084337	2037.0	-0.41818181818181815	460.0	-0.024545454545454544	-27.0	-0.22346938775510206	219.0	1.5228926421984375E12	1.522892642207E12	1882.8125	61696.0	0.0	0.0	
-0.7175572519083969	-34.0	0.5190839694656488	47.0	1.6793893129770991	-110.0	0.012048192771084338	1284.0	9.19277108433735	2046.0	0.08433734939759037	2040.0	-0.4172727272727273	459.0	-0.026363636363636363	-29.0	-0.22653061224489798	222.0	1.5228926422023438E12	1.522892642208E12	1886.71875	61824.0	0.0	0.0	
-0.366412213740458	-24.0	0.366412213740458	24.0	1.5419847328244274	-101.0	0.024096385542168676	1283.0	9.204819277108435	2045.0	0.08433734939759037	2040.0	-0.41363636363636364	455.0	-0.012727272727272728	-14.0	-0.22346938775510206	219.0	1.52289264220625E12	1.52289264224E12	1890.625	61952.0	0.0	0.0	
-0.5190839694656488	-40.0	0.6106870229007634	34.0	1.66412213740458	-109.0	0.024096385542168676	1282.0	9.216867469879519	2045.0	0.07228915662650603	2041.0	-0.41545454545454547	457.0	-0.02909090909090909	-32.0	-0.22346938775510206	219.0	1.5228926422101563E12	1.522892642242E12	1894.53125	62080.0	0.0	0.0	
-0.6870229007633587	-49.0	0.7480916030534351	45.0	1.9389312977099236	-127.0	0.0	1283.0	9.204819277108435	2047.0	0.04819277108433735	2043.0	-0.41909090909090907	461.0	-0.008181818181818182	-9.0	-0.21836734693877552	214.0	1.5228926422140625E12	1.522892642243E12	1898.4375	62208.0	0.0	0.0	
-0.4580152671755725	-51.0	0.7786259541984732	30.0	1.5114503816793892	-99.0	-0.060240963855421686	1284.0	9.19277108433735	2052.0	0.024096385542168676	2045.0	-0.41363636363636364	455.0	-0.014545454545454545	-16.0	-0.22551020408163266	221.0	1.5228926422179688E12	1.522892642244E12	1902.34375	62336.0	0.0	0.0	
-0.549618320610687	-62.0	0.9465648854961831	36.0	1.8931297709923662	-124.0	-0.0963855421686747	1284.0	9.19277108433735	2055.0	0.03614457831325302	2044.0	-0.4090909090909091	450.0	-0.024545454545454544	-27.0	-0.22244897959183677	218.0	1.522892642221875E12	1.522892642246E12	1906.25	62464.0	0.0	0.0	
-0.5343511450381679	-52.0	0.7938931297709924	35.0	1.5725190839694656	-103.0	-0.12048192771084337	1283.0	9.204819277108435	2057.0	0.012048192771084338	2046.0	-0.4090909090909091	450.0	-0.024545454545454544	-27.0	-0.22244897959183677	218.0	1.5228926422257813E12	1.522892642247E12	1910.15625	62592.0	0.0	0.0	
-0.549618320610687	-24.0	0.366412213740458	36.0	1.8778625954198473	-123.0	-0.10843373493975904	1284.0	9.19277108433735	2056.0	0.012048192771084338	2046.0	-0.4172727272727273	459.0	-0.02090909090909091	-23.0	-0.22653061224489798	222.0	1.5228926422296875E12	1.522892642248E12	1914.0625	62720.0	0.0	0.0	
-0.32061068702290074	-11.0	0.16793893129770993	21.0	1.618320610687023	-106.0	-0.10843373493975904	1284.0	9.19277108433735	2056.0	0.012048192771084338	2046.0	-0.41363636363636364	455.0	-0.01818181818181818	-20.0	-0.22448979591836737	220.0	1.5228926422335938E12	1.522892642249E12	1917.96875	62848.0	0.0	0.0	
-0.366412213740458	-15.0	0.22900763358778625	24.0	1.648854961832061	-108.0	-0.08433734939759037	1285.0	9.180722891566266	2054.0	0.024096385542168676	2045.0	-0.41818181818181815	460.0	-0.02727272727272727	-30.0	-0.22551020408163266	221.0	1.5228926422375E12	1.52289264225E12	1921.875	62976.0	0.0	0.0	
-0.2748091603053435	15.0	-0.22900763358778625	18.0	1.6030534351145038	-105.0	-0.060240963855421686	1285.0	9.180722891566266	2052.0	0.03614457831325302	2044.0	-0.41454545454545455	456.0	-0.014545454545454545	-16.0	-0.22755102040816327	223.0	1.5228926422414063E12	1.52289264225E12	1925.78125	63104.0	0.0	0.0	
-0.1984732824427481	5.0	-0.07633587786259542	13.0	1.6946564885496183	-111.0	-0.04819277108433735	1283.0	9.204819277108435	2051.0	0.03614457831325302	2044.0	-0.41454545454545455	456.0	-0.01090909090909091	-12.0	-0.21938775510204084	215.0	1.5228926422453125E12	1.522892642256E12	1929.6875	63232.0	0.0	0.0	
-0.48854961832061067	6.0	-0.0916030534351145	32.0	1.7251908396946565	-113.0	-0.03614457831325302	1283.0	9.204819277108435	2050.0	0.03614457831325302	2044.0	-0.4209090909090909	463.0	-0.02727272727272727	-30.0	-0.22346938775510206	219.0	1.5228926422492188E12	1.522892642257E12	1933.59375	63360.0	0.0	0.0	
-0.4427480916030534	-2.0	0.030534351145038167	29.0	1.7557251908396947	-115.0	-0.012048192771084338	1283.0	9.204819277108435	2048.0	0.08433734939759037	2040.0	-0.4209090909090909	463.0	-0.02727272727272727	-30.0	-0.22346938775510206	219.0	1.522892642253125E12	1.522892642258E12	1937.5	63488.0	0.0	0.0	
-0.3511450381679389	-22.0	0.33587786259541985	23.0	1.984732824427481	-130.0	0.0	1285.0	9.180722891566266	2047.0	0.07228915662650603	2041.0	-0.4109090909090909	452.0	-0.01	-11.0	-0.2163265306122449	212.0	1.5228926422570313E12	1.522892642272E12	1941.40625	63616.0	0.0	0.0	
-0.42748091603053434	-16.0	0.24427480916030533	28.0	1.984732824427481	-130.0	0.024096385542168676	1285.0	9.180722891566266	2045.0	0.060240963855421686	2042.0	-0.41909090909090907	461.0	-0.01818181818181818	-20.0	-0.22448979591836737	220.0	1.5228926422609375E12	1.522892642273E12	1945.3125	63744.0	0.0	0.0	
-0.5801526717557252	-19.0	0.2900763358778626	38.0	2.229007633587786	-146.0	0.07228915662650603	1288.0	9.144578313253012	2041.0	0.04819277108433735	2043.0	-0.4163636363636364	458.0	-0.026363636363636363	-29.0	-0.22040816326530616	216.0	1.5228926422648438E12	1.522892642274E12	1949.21875	63872.0	0.0	0.0	
-0.16793893129770993	-5.0	0.07633587786259542	11.0	1.9694656488549618	-129.0	0.14457831325301207	1288.0	9.144578313253012	2035.0	0.03614457831325302	2044.0	-0.4172727272727273	459.0	-0.017272727272727273	-19.0	-0.22142857142857145	217.0	1.52289264226875E12	1.522892642289E12	1953.125	64000.0	0.0	0.0	
-0.564885496183206	-14.0	0.21374045801526717	37.0	1.9541984732824427	-128.0	0.20481927710843376	1286.0	9.168674698795181	2030.0	0.012048192771084338	2046.0	-0.4163636363636364	458.0	-0.00909090909090909	-10.0	-0.21836734693877552	214.0	1.5228926422726563E12	1.52289264229E12	1957.03125	64128.0	0.0	0.0	
-0.47328244274809156	-24.0	0.366412213740458	31.0	1.7862595419847327	-117.0	0.22891566265060243	1284.0	9.19277108433735	2028.0	-0.03614457831325302	2050.0	-0.41909090909090907	461.0	-0.028181818181818183	-31.0	-0.22142857142857145	217.0	1.5228926422765625E12	1.52289264229E12	1960.9375	64256.0	0.0	0.0	
-0.4580152671755725	-17.0	0.2595419847328244	30.0	1.6030534351145038	-105.0	0.1927710843373494	1284.0	9.19277108433735	2031.0	-0.0963855421686747	2055.0	-0.41909090909090907	461.0	-0.028181818181818183	-31.0	-0.22142857142857145	217.0	1.5228926422804688E12	1.522892642293E12	1964.84375	64384.0	0.0	0.0	
-0.549618320610687	-25.0	0.38167938931297707	36.0	1.8473282442748091	-121.0	0.12048192771084337	1283.0	9.204819277108435	2037.0	-0.14457831325301207	2059.0	-0.41454545454545455	456.0	-0.00909090909090909	-10.0	-0.2285714285714286	224.0	1.522892642284375E12	1.522892642293E12	1968.75	64512.0	0.0	0.0	
-0.32061068702290074	-31.0	0.47328244274809156	21.0	1.6793893129770991	-110.0	0.0963855421686747	1284.0	9.19277108433735	2039.0	-0.20481927710843376	2064.0	-0.4081818181818182	449.0	-0.00909090909090909	-10.0	-0.22346938775510206	219.0	1.5228926422882813E12	1.522892642294E12	1972.65625	64640.0	0.0	0.0	
-0.549618320610687	-35.0	0.5343511450381679	36.0	1.8778625954198473	-123.0	0.0963855421686747	1284.0	9.19277108433735	2039.0	-0.22891566265060243	2066.0	-0.41909090909090907	461.0	-0.024545454545454544	-27.0	-0.22448979591836737	220.0	1.5228926422921875E12	1.522892642305E12	1976.5625	64768.0	0.0	0.0	
-0.6259541984732824	-40.0	0.6106870229007634	41.0	1.9694656488549618	-129.0	0.12048192771084337	1284.0	9.19277108433735	2037.0	-0.21686746987951808	2065.0	-0.41454545454545455	456.0	-0.01818181818181818	-20.0	-0.22244897959183677	218.0	1.5228926422960938E12	1.522892642306E12	1980.46875	64896.0	0.0	0.0	
-0.42748091603053434	-44.0	0.6717557251908397	28.0	1.9541984732824427	-128.0	0.20481927710843376	1286.0	9.168674698795181	2030.0	-0.21686746987951808	2065.0	-0.41545454545454547	457.0	-0.012727272727272728	-14.0	-0.22244897959183677	218.0	1.5228926423E12	1.522892642306E12	1984.375	65024.0	0.0	0.0	
-1.0076335877862594	-51.0	0.7786259541984732	66.0	2.015267175572519	-132.0	0.27710843373493976	1284.0	9.19277108433735	2024.0	-0.1927710843373494	2063.0	-0.41545454545454547	457.0	-0.01	-11.0	-0.2163265306122449	212.0	1.5228926423039063E12	1.522892642307E12	1988.28125	65152.0	0.0	0.0	
-0.6717557251908397	-65.0	0.9923664122137404	44.0	1.7099236641221374	-112.0	0.28915662650602414	1282.0	9.216867469879519	2023.0	-0.18072289156626506	2062.0	-0.41363636363636364	455.0	-0.01	-11.0	-0.2163265306122449	212.0	1.5228926423078125E12	1.522892642321E12	1992.1875	65280.0	0.0	0.0	
-0.7175572519083969	-63.0	0.9618320610687022	47.0	1.648854961832061	-108.0	0.24096385542168675	1283.0	9.204819277108435	2027.0	-0.1566265060240964	2060.0	-0.4118181818181818	453.0	-0.016363636363636365	-18.0	-0.22244897959183677	218.0	1.5228926423117188E12	1.522892642322E12	1996.09375	65408.0	0.0	0.0	
-0.916030534351145	-75.0	1.1450381679389312	60.0	1.4198473282442747	-93.0	0.18072289156626506	1283.0	9.204819277108435	2032.0	-0.1566265060240964	2060.0	-0.41545454545454547	457.0	-0.01090909090909091	-12.0	-0.22142857142857145	217.0	1.522892642315625E12	1.522892642329E12	2000.0	0.0	0.0	0.0	
-0.7786259541984732	-59.0	0.9007633587786259	51.0	1.6335877862595418	-107.0	0.12048192771084337	1283.0	9.204819277108435	2037.0	-0.12048192771084337	2057.0	-0.4109090909090909	452.0	-0.00909090909090909	-10.0	-0.22040816326530616	216.0	1.5228926423195313E12	1.522892642333E12	2003.90625	128.0	0.0	0.0	
-0.9923664122137404	-58.0	0.8854961832061068	65.0	1.4809160305343512	-97.0	0.04819277108433735	1283.0	9.204819277108435	2043.0	-0.0963855421686747	2055.0	-0.41363636363636364	455.0	-0.02727272727272727	-30.0	-0.22244897959183677	218.0	1.5228926423234375E12	1.522892642334E12	2007.8125	256.0	0.0	0.0	
-0.9770992366412213	-56.0	0.8549618320610687	64.0	1.4045801526717556	-92.0	0.03614457831325302	1282.0	9.216867469879519	2044.0	-0.04819277108433735	2051.0	-0.41818181818181815	460.0	-0.012727272727272728	-14.0	-0.22142857142857145	217.0	1.5228926423273438E12	1.522892642335E12	2011.71875	384.0	0.0	0.0	
-0.9770992366412213	-51.0	0.7786259541984732	64.0	1.6335877862595418	-107.0	0.04819277108433735	1283.0	9.204819277108435	2043.0	-0.012048192771084338	2048.0	-0.41818181818181815	460.0	-0.012727272727272728	-14.0	-0.22142857142857145	217.0	1.52289264233125E12	1.522892642343E12	2015.625	512.0	0.0	0.0	
-1.0229007633587786	-36.0	0.549618320610687	67.0	1.5419847328244274	-101.0	0.012048192771084338	1283.0	9.204819277108435	2046.0	0.024096385542168676	2045.0	-0.41454545454545455	456.0	-0.00909090909090909	-10.0	-0.21836734693877552	214.0	1.5228926423351563E12	1.522892642344E12	2019.53125	640.0	0.0	0.0	
-0.7938931297709924	-33.0	0.5038167938931297	52.0	1.6030534351145038	-105.0	0.012048192771084338	1285.0	9.180722891566266	2046.0	0.060240963855421686	2042.0	-0.41545454545454547	457.0	-0.02	-22.0	-0.22653061224489798	222.0	1.5228926423390625E12	1.522892642345E12	2023.4375	768.0	0.0	0.0	
-0.8854961832061068	-36.0	0.549618320610687	58.0	1.5114503816793892	-99.0	0.012048192771084338	1284.0	9.19277108433735	2046.0	0.08433734939759037	2040.0	-0.41909090909090907	461.0	-0.017272727272727273	-19.0	-0.22142857142857145	217.0	1.5228926423429688E12	1.522892642358E12	2027.34375	896.0	0.0	0.0	
-0.9618320610687022	-41.0	0.6259541984732824	63.0	1.4809160305343512	-97.0	0.060240963855421686	1286.0	9.168674698795181	2042.0	0.12048192771084337	2037.0	-0.4127272727272727	454.0	-0.007272727272727273	-8.0	-0.22040816326530616	216.0	1.522892642346875E12	1.522892642359E12	2031.25	1024.0	0.0	0.0	
-0.9618320610687022	-35.0	0.5343511450381679	63.0	1.648854961832061	-108.0	0.0963855421686747	1285.0	9.180722891566266	2039.0	0.12048192771084337	2037.0	-0.41363636363636364	455.0	-0.024545454545454544	-27.0	-0.22653061224489798	222.0	1.5228926423507813E12	1.52289264236E12	2035.15625	1152.0	0.0	0.0	
-0.7786259541984732	-19.0	0.2900763358778626	51.0	1.4351145038167938	-94.0	0.0963855421686747	1284.0	9.19277108433735	2039.0	0.14457831325301207	2035.0	-0.41363636363636364	455.0	0.0018181818181818182	2.0	-0.22551020408163266	221.0	1.5228926423546875E12	1.522892642393E12	2039.0625	1280.0	0.0	0.0	
-0.6717557251908397	-32.0	0.48854961832061067	44.0	1.3740458015267174	-90.0	0.07228915662650603	1283.0	9.204819277108435	2041.0	0.14457831325301207	2035.0	-0.41363636363636364	455.0	0.0018181818181818182	2.0	-0.22551020408163266	221.0	1.5228926423585938E12	1.522892642394E12	2042.96875	1408.0	0.0	0.0	
-0.732824427480916	-28.0	0.42748091603053434	48.0	1.3740458015267174	-90.0	0.024096385542168676	1283.0	9.204819277108435	2045.0	0.13253012048192772	2036.0	-0.4209090909090909	463.0	-0.026363636363636363	-29.0	-0.22346938775510206	219.0	1.5228926423625E12	1.522892642394E12	2046.875	1536.0	0.0	0.0	
-0.5801526717557252	-31.0	0.47328244274809156	38.0	1.618320610687023	-106.0	-0.024096385542168676	1284.0	9.19277108433735	2049.0	0.10843373493975904	2038.0	-0.41545454545454547	457.0	-0.02727272727272727	-30.0	-0.2295918367346939	225.0	1.5228926423664063E12	1.522892642395E12	2050.78125	1664.0	0.0	0.0	
-0.8091603053435115	-15.0	0.22900763358778625	53.0	1.3740458015267174	-90.0	-0.024096385542168676	1283.0	9.204819277108435	2049.0	0.0963855421686747	2039.0	-0.41909090909090907	461.0	-0.016363636363636365	-18.0	-0.22040816326530616	216.0	1.5228926423703125E12	1.522892642396E12	2054.6875	1792.0	0.0	0.0	
-0.4427480916030534	-4.0	0.061068702290076333	29.0	1.5572519083969465	-102.0	0.03614457831325302	1284.0	9.19277108433735	2044.0	0.060240963855421686	2042.0	-0.4127272727272727	454.0	-0.025454545454545455	-28.0	-0.22653061224489798	222.0	1.5228926423742188E12	1.522892642397E12	2058.59375	1920.0	0.0	0.0	
-0.7022900763358778	-6.0	0.0916030534351145	46.0	1.5114503816793892	-99.0	0.12048192771084337	1285.0	9.180722891566266	2037.0	0.03614457831325302	2044.0	-0.41818181818181815	460.0	-0.02727272727272727	-30.0	-0.2285714285714286	224.0	1.522892642378125E12	1.522892642398E12	2062.5	2048.0	0.0	0.0	
-0.6259541984732824	-4.0	0.061068702290076333	41.0	1.465648854961832	-96.0	0.14457831325301207	1285.0	9.180722891566266	2035.0	0.012048192771084338	2046.0	-0.4209090909090909	463.0	-0.015454545454545455	-17.0	-0.22244897959183677	218.0	1.5228926423820313E12	1.522892642399E12	2066.40625	2176.0	0.0	0.0	
-0.549618320610687	-24.0	0.366412213740458	36.0	1.648854961832061	-108.0	0.10843373493975904	1286.0	9.168674698795181	2038.0	-0.03614457831325302	2050.0	-0.4209090909090909	463.0	-0.015454545454545455	-17.0	-0.22244897959183677	218.0	1.5228926423859375E12	1.5228926424E12	2070.3125	2304.0	0.0	0.0	
-0.41221374045801523	-34.0	0.5190839694656488	27.0	1.4961832061068703	-98.0	0.024096385542168676	1284.0	9.19277108433735	2045.0	-0.04819277108433735	2051.0	-0.41909090909090907	461.0	-0.025454545454545455	-28.0	-0.2285714285714286	224.0	1.5228926423898438E12	1.522892642401E12	2074.21875	2432.0	0.0	0.0	
-0.7022900763358778	-27.0	0.41221374045801523	46.0	1.3893129770992365	-91.0	-0.03614457831325302	1284.0	9.19277108433735	2050.0	-0.08433734939759037	2054.0	-0.4163636363636364	458.0	-0.024545454545454544	-27.0	-0.22551020408163266	221.0	1.52289264239375E12	1.522892642402E12	2078.125	2560.0	0.0	0.0	
-0.732824427480916	-33.0	0.5038167938931297	48.0	1.5572519083969465	-102.0	-0.024096385542168676	1284.0	9.19277108433735	2049.0	-0.07228915662650603	2053.0	-0.4218181818181818	464.0	-0.01818181818181818	-20.0	-0.22244897959183677	218.0	1.5228926423976563E12	1.522892642403E12	2082.03125	2688.0	0.0	0.0	
-0.8702290076335878	-23.0	0.3511450381679389	57.0	1.5572519083969465	-102.0	0.0	1284.0	9.19277108433735	2047.0	-0.060240963855421686	2052.0	-0.41818181818181815	460.0	-0.02909090909090909	-32.0	-0.22653061224489798	222.0	1.5228926424015625E12	1.522892642412E12	2085.9375	2816.0	0.0	0.0	
-0.7633587786259541	-38.0	0.5801526717557252	50.0	1.6946564885496183	-111.0	0.024096385542168676	1283.0	9.204819277108435	2045.0	-0.03614457831325302	2050.0	-0.4127272727272727	454.0	-0.02090909090909091	-23.0	-0.21938775510204084	215.0	1.5228926424054688E12	1.522892642413E12	2089.84375	2944.0	0.0	0.0	
-0.8091603053435115	-46.0	0.7022900763358778	53.0	1.6946564885496183	-111.0	0.024096385542168676	1285.0	9.180722891566266	2045.0	-0.04819277108433735	2051.0	-0.41363636363636364	455.0	9.090909090909091E-4	1.0	-0.21836734693877552	214.0	1.522892642409375E12	1.522892642414E12	2093.75	3072.0	0.0	0.0	
-0.8854961832061068	-31.0	0.47328244274809156	58.0	1.8015267175572518	-118.0	0.03614457831325302	1285.0	9.180722891566266	2044.0	-0.012048192771084338	2048.0	-0.41363636363636364	455.0	9.090909090909091E-4	1.0	-0.21836734693877552	214.0	1.5228926424132813E12	1.522892642424E12	2097.65625	3200.0	0.0	0.0	
-0.8549618320610687	-48.0	0.732824427480916	56.0	1.618320610687023	-106.0	0.012048192771084338	1285.0	9.180722891566266	2046.0	0.012048192771084338	2046.0	-0.4172727272727273	459.0	-0.00909090909090909	-10.0	-0.21836734693877552	214.0	1.5228926424171875E12	1.522892642425E12	2101.5625	3328.0	0.0	0.0	
-0.8244274809160305	-43.0	0.6564885496183206	54.0	1.7404580152671756	-114.0	-0.012048192771084338	1284.0	9.19277108433735	2048.0	0.03614457831325302	2044.0	-0.41363636363636364	455.0	-0.017272727272727273	-19.0	-0.22755102040816327	223.0	1.5228926424210938E12	1.522892642426E12	2105.46875	3456.0	0.0	0.0	
-0.8244274809160305	-39.0	0.5954198473282443	54.0	1.618320610687023	-106.0	-0.060240963855421686	1283.0	9.204819277108435	2052.0	0.07228915662650603	2041.0	-0.4127272727272727	454.0	9.090909090909091E-4	1.0	-0.22244897959183677	218.0	1.522892642425E12	1.522892642439E12	2109.375	3584.0	0.0	0.0	
-0.7175572519083969	-40.0	0.6106870229007634	47.0	1.8931297709923662	-124.0	-0.08433734939759037	1285.0	9.180722891566266	2054.0	0.10843373493975904	2038.0	-0.41363636363636364	455.0	-0.022727272727272728	-25.0	-0.22653061224489798	222.0	1.5228926424289063E12	1.52289264244E12	2113.28125	3712.0	0.0	0.0	
-0.7480916030534351	-38.0	0.5801526717557252	49.0	1.6335877862595418	-107.0	-0.07228915662650603	1284.0	9.19277108433735	2053.0	0.1566265060240964	2034.0	-0.41545454545454547	457.0	-0.016363636363636365	-18.0	-0.22244897959183677	218.0	1.5228926424328125E12	1.522892642442E12	2117.1875	3840.0	0.0	0.0	
-0.6564885496183206	-26.0	0.3969465648854962	43.0	2.015267175572519	-132.0	-0.024096385542168676	1285.0	9.180722891566266	2049.0	0.20481927710843376	2030.0	-0.4118181818181818	453.0	-0.028181818181818183	-31.0	-0.22551020408163266	221.0	1.5228926424367188E12	1.522892642449E12	2121.09375	3968.0	0.0	0.0	
-0.7022900763358778	-20.0	0.3053435114503817	46.0	1.8473282442748091	-121.0	0.012048192771084338	1283.0	9.204819277108435	2046.0	0.21686746987951808	2029.0	-0.4118181818181818	453.0	-0.028181818181818183	-31.0	-0.22551020408163266	221.0	1.522892642440625E12	1.52289264245E12	2125.0	4096.0	0.0	0.0	
-0.7633587786259541	-27.0	0.41221374045801523	50.0	1.9694656488549618	-129.0	0.04819277108433735	1283.0	9.204819277108435	2043.0	0.21686746987951808	2029.0	-0.41454545454545455	456.0	-0.026363636363636363	-29.0	-0.22448979591836737	220.0	1.5228926424445313E12	1.522892642451E12	2128.90625	4224.0	0.0	0.0	
-0.549618320610687	-28.0	0.42748091603053434	36.0	1.7709923664122136	-116.0	0.012048192771084338	1284.0	9.19277108433735	2046.0	0.22891566265060243	2028.0	-0.41545454545454547	457.0	-0.015454545454545455	-17.0	-0.22244897959183677	218.0	1.5228926424484375E12	1.522892642461E12	2132.8125	4352.0	0.0	0.0	
-0.5801526717557252	-14.0	0.21374045801526717	38.0	1.6793893129770991	-110.0	0.024096385542168676	1283.0	9.204819277108435	2045.0	0.21686746987951808	2029.0	-0.4109090909090909	452.0	-0.0018181818181818182	-2.0	-0.21836734693877552	214.0	1.5228926424523438E12	1.522892642462E12	2136.71875	4480.0	0.0	0.0	
-0.24427480916030533	-2.0	0.030534351145038167	16.0	1.83206106870229	-120.0	0.024096385542168676	1284.0	9.19277108433735	2045.0	0.1927710843373494	2031.0	-0.41454545454545455	456.0	-0.00909090909090909	-10.0	-0.22448979591836737	220.0	1.52289264245625E12	1.522892642463E12	2140.625	4608.0	0.0	0.0	
-0.48854961832061067	-1.0	0.015267175572519083	32.0	1.7557251908396947	-115.0	0.04819277108433735	1284.0	9.19277108433735	2043.0	0.1927710843373494	2031.0	-0.41545454545454547	457.0	-0.013636363636363636	-15.0	-0.22244897959183677	218.0	1.5228926424601563E12	1.52289264247E12	2144.53125	4736.0	0.0	0.0	
-0.2748091603053435	10.0	-0.15267175572519084	18.0	2.015267175572519	-132.0	0.08433734939759037	1285.0	9.180722891566266	2040.0	0.18072289156626506	2032.0	-0.41545454545454547	457.0	-0.019090909090909092	-21.0	-0.22244897959183677	218.0	1.5228926424640625E12	1.522892642471E12	2148.4375	4864.0	0.0	0.0	
-0.24427480916030533	7.0	-0.10687022900763359	16.0	1.984732824427481	-130.0	0.0963855421686747	1285.0	9.180722891566266	2039.0	0.1566265060240964	2034.0	-0.4218181818181818	464.0	-0.019090909090909092	-21.0	-0.21836734693877552	214.0	1.5228926424679688E12	1.522892642472E12	2152.34375	4992.0	0.0	0.0	
-0.2900763358778626	6.0	-0.0916030534351145	19.0	1.8778625954198473	-123.0	0.10843373493975904	1286.0	9.168674698795181	2038.0	0.1566265060240964	2034.0	-0.42	462.0	-0.024545454545454544	-27.0	-0.22653061224489798	222.0	1.522892642471875E12	1.522892642488E12	2156.25	5120.0	0.0	0.0	
-0.183206106870229	-12.0	0.183206106870229	12.0	1.7251908396946565	-113.0	0.08433734939759037	1286.0	9.168674698795181	2040.0	0.060240963855421686	2042.0	-0.40636363636363637	447.0	-0.02090909090909091	-23.0	-0.22142857142857145	217.0	1.5228926424757813E12	1.522892642489E12	2160.15625	5248.0	0.0	0.0	
0.0	-3.0	0.04580152671755725	0.0	1.9694656488549618	-129.0	0.12048192771084337	1288.0	9.144578313253012	2037.0	0.024096385542168676	2045.0	-0.42	462.0	-0.023636363636363636	-26.0	-0.22244897959183677	218.0	1.5228926424796875E12	1.52289264249E12	2164.0625	5376.0	0.0	0.0	
-0.12213740458015267	3.0	-0.04580152671755725	8.0	1.984732824427481	-130.0	0.1566265060240964	1286.0	9.168674698795181	2034.0	-0.060240963855421686	2052.0	-0.4172727272727273	459.0	-0.008181818181818182	-9.0	-0.21530612244897962	211.0	1.5228926424835938E12	1.522892642491E12	2167.96875	5504.0	0.0	0.0	
0.061068702290076333	6.0	-0.0916030534351145	-4.0	1.9541984732824427	-128.0	0.21686746987951808	1284.0	9.19277108433735	2029.0	-0.13253012048192772	2058.0	-0.41545454545454547	457.0	-0.011818181818181818	-13.0	-0.22653061224489798	222.0	1.5228926424875E12	1.522892642492E12	2171.875	5632.0	0.0	0.0	
-0.21374045801526717	1.0	-0.015267175572519083	14.0	1.465648854961832	-96.0	0.21686746987951808	1284.0	9.19277108433735	2029.0	-0.18072289156626506	2062.0	-0.41545454545454547	457.0	-0.011818181818181818	-13.0	-0.22653061224489798	222.0	1.5228926424914063E12	1.522892642492E12	2175.78125	5760.0	0.0	0.0	
-0.22900763358778625	5.0	-0.07633587786259542	15.0	1.9541984732824427	-128.0	0.20481927710843376	1284.0	9.19277108433735	2030.0	-0.21686746987951808	2065.0	-0.41909090909090907	461.0	-0.023636363636363636	-26.0	-0.22346938775510206	219.0	1.5228926424953125E12	1.522892642509E12	2179.6875	5888.0	0.0	0.0	
-0.24427480916030533	-13.0	0.1984732824427481	16.0	1.5419847328244274	-101.0	0.1927710843373494	1284.0	9.19277108433735	2031.0	-0.24096385542168675	2067.0	-0.41818181818181815	460.0	-0.028181818181818183	-31.0	-0.22755102040816327	223.0	1.5228926424992188E12	1.522892642509E12	2183.59375	6016.0	0.0	0.0	
-0.32061068702290074	3.0	-0.04580152671755725	21.0	1.6030534351145038	-105.0	0.20481927710843376	1284.0	9.19277108433735	2030.0	-0.27710843373493976	2070.0	-0.42	462.0	-0.016363636363636365	-18.0	-0.22551020408163266	221.0	1.522892642503125E12	1.52289264251E12	2187.5	6144.0	0.0	0.0	
-0.3969465648854962	-20.0	0.3053435114503817	26.0	1.4961832061068703	-98.0	0.21686746987951808	1284.0	9.19277108433735	2029.0	-0.26506024096385544	2069.0	-0.41818181818181815	460.0	-0.02909090909090909	-32.0	-0.22142857142857145	217.0	1.5228926425070313E12	1.522892642544E12	2191.40625	6272.0	0.0	0.0	
-0.5801526717557252	-19.0	0.2900763358778626	38.0	1.5114503816793892	-99.0	0.24096385542168675	1286.0	9.168674698795181	2027.0	-0.2530120481927711	2068.0	-0.4172727272727273	459.0	-0.026363636363636363	-29.0	-0.22653061224489798	222.0	1.5228926425109375E12	1.522892642546E12	2195.3125	6400.0	0.0	0.0	
-0.42748091603053434	-33.0	0.5038167938931297	28.0	1.5419847328244274	-101.0	0.26506024096385544	1284.0	9.19277108433735	2025.0	-0.24096385542168675	2067.0	-0.4163636363636364	458.0	-0.02	-22.0	-0.22653061224489798	222.0	1.5228926425148438E12	1.522892642547E12	2199.21875	6528.0	0.0	0.0	
-0.549618320610687	-28.0	0.42748091603053434	36.0	1.4351145038167938	-94.0	0.27710843373493976	1285.0	9.180722891566266	2024.0	-0.21686746987951808	2065.0	-0.4163636363636364	458.0	-0.02	-22.0	-0.22653061224489798	222.0	1.52289264251875E12	1.522892642549E12	2203.125	6656.0	0.0	0.0	
-0.6564885496183206	-35.0	0.5343511450381679	43.0	1.4809160305343512	-97.0	0.27710843373493976	1284.0	9.19277108433735	2024.0	-0.18072289156626506	2062.0	-0.41909090909090907	461.0	-0.02909090909090909	-32.0	-0.22448979591836737	220.0	1.5228926425226563E12	1.52289264255E12	2207.03125	6784.0	0.0	0.0	
-0.8091603053435115	-38.0	0.5801526717557252	53.0	1.4961832061068703	-98.0	0.2530120481927711	1283.0	9.204819277108435	2026.0	-0.13253012048192772	2058.0	-0.4218181818181818	464.0	-0.017272727272727273	-19.0	-0.22551020408163266	221.0	1.5228926425265625E12	1.522892642551E12	2210.9375	6912.0	0.0	0.0	
-0.7786259541984732	-62.0	0.9465648854961831	51.0	1.3893129770992365	-91.0	0.1927710843373494	1283.0	9.204819277108435	2031.0	-0.10843373493975904	2056.0	-0.4172727272727273	459.0	-0.017272727272727273	-19.0	-0.22755102040816327	223.0	1.5228926425304688E12	1.522892642553E12	2214.84375	7040.0	0.0	0.0	
-0.5801526717557252	-66.0	1.0076335877862594	38.0	1.3740458015267174	-90.0	0.12048192771084337	1285.0	9.180722891566266	2037.0	-0.060240963855421686	2052.0	-0.4209090909090909	463.0	-0.026363636363636363	-29.0	-0.22142857142857145	217.0	1.522892642534375E12	1.522892642555E12	2218.75	7168.0	0.0	0.0	
-0.6412213740458015	-66.0	1.0076335877862594	42.0	1.465648854961832	-96.0	0.12048192771084337	1284.0	9.19277108433735	2037.0	-0.03614457831325302	2050.0	-0.4172727272727273	459.0	-0.02	-22.0	-0.22448979591836737	220.0	1.5228926425382813E12	1.522892642556E12	2222.65625	7296.0	0.0	0.0	
-0.6717557251908397	-37.0	0.564885496183206	44.0	1.1908396946564885	-78.0	0.0963855421686747	1283.0	9.204819277108435	2039.0	0.0	2047.0	-0.41818181818181815	460.0	-0.017272727272727273	-19.0	-0.22448979591836737	220.0	1.5228926425421875E12	1.522892642557E12	2226.5625	7424.0	0.0	0.0	
-0.7938931297709924	-42.0	0.6412213740458015	52.0	1.4809160305343512	-97.0	0.0963855421686747	1283.0	9.204819277108435	2039.0	0.0	2047.0	-0.41818181818181815	460.0	-0.017272727272727273	-19.0	-0.22448979591836737	220.0	1.5228926425460938E12	1.522892642558E12	2230.46875	7552.0	0.0	0.0	
-0.7480916030534351	-33.0	0.5038167938931297	49.0	1.5572519083969465	-102.0	0.0963855421686747	1285.0	9.180722891566266	2039.0	0.024096385542168676	2045.0	-0.41909090909090907	461.0	-0.02727272727272727	-30.0	-0.22142857142857145	217.0	1.52289264255E12	1.522892642558E12	2234.375	7680.0	0.0	0.0	
-0.8091603053435115	-33.0	0.5038167938931297	53.0	1.2671755725190839	-83.0	0.12048192771084337	1284.0	9.19277108433735	2037.0	0.012048192771084338	2046.0	-0.41454545454545455	456.0	-0.019090909090909092	-21.0	-0.22448979591836737	220.0	1.5228926425539063E12	1.52289264256E12	2238.28125	7808.0	0.0	0.0	
-0.5801526717557252	-30.0	0.4580152671755725	38.0	1.3740458015267174	-90.0	0.060240963855421686	1285.0	9.180722891566266	2042.0	0.0	2047.0	-0.4172727272727273	459.0	-0.02181818181818182	-24.0	-0.22346938775510206	219.0	1.5228926425578125E12	1.522892642574E12	2242.1875	7936.0	0.0	0.0	
-0.732824427480916	-47.0	0.7175572519083969	48.0	1.282442748091603	-84.0	0.03614457831325302	1283.0	9.204819277108435	2044.0	-0.012048192771084338	2048.0	-0.4118181818181818	453.0	-0.01090909090909091	-12.0	-0.22448979591836737	220.0	1.5228926425617188E12	1.522892642575E12	2246.09375	8064.0	0.0	0.0	
-0.6870229007633587	-33.0	0.5038167938931297	45.0	1.3129770992366412	-86.0	0.024096385542168676	1285.0	9.180722891566266	2045.0	-0.024096385542168676	2049.0	-0.41454545454545455	456.0	-0.011818181818181818	-13.0	-0.213265306122449	209.0	1.522892642565625E12	1.522892642576E12	2250.0	8192.0	0.0	0.0	
-0.6259541984732824	-28.0	0.42748091603053434	41.0	1.3893129770992365	-91.0	-0.012048192771084338	1285.0	9.180722891566266	2048.0	0.0	2047.0	-0.4163636363636364	458.0	-0.00909090909090909	-10.0	-0.22142857142857145	217.0	1.5228926425695313E12	1.52289264258E12	2253.90625	8320.0	0.0	0.0	
-0.732824427480916	-34.0	0.5190839694656488	48.0	1.2061068702290076	-79.0	0.0	1285.0	9.180722891566266	2047.0	-0.03614457831325302	2050.0	-0.4163636363636364	458.0	-0.00909090909090909	-10.0	-0.22142857142857145	217.0	1.5228926425734375E12	1.522892642581E12	2257.8125	8448.0	0.0	0.0	
-0.7633587786259541	-51.0	0.7786259541984732	50.0	1.5725190839694656	-103.0	0.03614457831325302	1284.0	9.19277108433735	2044.0	-0.024096385542168676	2049.0	-0.42272727272727273	465.0	-0.02727272727272727	-30.0	-0.22346938775510206	219.0	1.5228926425773438E12	1.522892642582E12	2261.71875	8576.0	0.0	0.0	
-0.7175572519083969	-44.0	0.6717557251908397	47.0	1.3893129770992365	-91.0	0.03614457831325302	1283.0	9.204819277108435	2044.0	-0.04819277108433735	2051.0	-0.41363636363636364	455.0	-0.00909090909090909	-10.0	-0.22551020408163266	221.0	1.52289264258125E12	1.522892642595E12	2265.625	8704.0	0.0	0.0	
-0.6412213740458015	-31.0	0.47328244274809156	42.0	1.3740458015267174	-90.0	0.08433734939759037	1285.0	9.180722891566266	2040.0	-0.0963855421686747	2055.0	-0.41909090909090907	461.0	-0.011818181818181818	-13.0	-0.22244897959183677	218.0	1.5228926425851563E12	1.522892642597E12	2269.53125	8832.0	0.0	0.0	
-0.6259541984732824	-23.0	0.3511450381679389	41.0	1.450381679389313	-95.0	0.10843373493975904	1286.0	9.168674698795181	2038.0	-0.10843373493975904	2056.0	-0.42272727272727273	465.0	-0.026363636363636363	-29.0	-0.22244897959183677	218.0	1.5228926425890625E12	1.522892642598E12	2273.4375	8960.0	0.0	0.0	
-0.8091603053435115	-27.0	0.41221374045801523	53.0	1.282442748091603	-84.0	0.1566265060240964	1285.0	9.180722891566266	2034.0	-0.12048192771084337	2057.0	-0.41909090909090907	461.0	-0.017272727272727273	-19.0	-0.21938775510204084	215.0	1.5228926425929688E12	1.522892642601E12	2277.34375	9088.0	0.0	0.0	
-0.7480916030534351	-25.0	0.38167938931297707	49.0	1.3740458015267174	-90.0	0.1927710843373494	1283.0	9.204819277108435	2031.0	-0.1566265060240964	2060.0	-0.41909090909090907	461.0	-0.012727272727272728	-14.0	-0.22244897959183677	218.0	1.522892642596875E12	1.522892642602E12	2281.25	9216.0	0.0	0.0	
-0.6870229007633587	-29.0	0.4427480916030534	45.0	1.282442748091603	-84.0	0.1927710843373494	1285.0	9.180722891566266	2031.0	-0.1927710843373494	2063.0	-0.41909090909090907	461.0	-0.012727272727272728	-14.0	-0.22244897959183677	218.0	1.5228926426007813E12	1.522892642604E12	2285.15625	9344.0	0.0	0.0	
-0.6717557251908397	-42.0	0.6412213740458015	44.0	1.3893129770992365	-91.0	0.16867469879518074	1284.0	9.19277108433735	2033.0	-0.20481927710843376	2064.0	-0.42272727272727273	465.0	-0.026363636363636363	-29.0	-0.22142857142857145	217.0	1.5228926426046875E12	1.522892642617E12	2289.0625	9472.0	0.0	0.0	
-0.6717557251908397	-41.0	0.6259541984732824	44.0	1.0381679389312977	-68.0	0.12048192771084337	1282.0	9.216867469879519	2037.0	-0.24096385542168675	2067.0	-0.4118181818181818	453.0	-0.01090909090909091	-12.0	-0.22040816326530616	216.0	1.5228926426085938E12	1.522892642618E12	2292.96875	9600.0	0.0	0.0	
-0.8854961832061068	-47.0	0.7175572519083969	58.0	1.2519083969465647	-82.0	0.04819277108433735	1282.0	9.216867469879519	2043.0	-0.2530120481927711	2068.0	-0.4209090909090909	463.0	-0.017272727272727273	-19.0	-0.22040816326530616	216.0	1.5228926426125E12	1.522892642621E12	2296.875	9728.0	0.0	0.0	
-0.8702290076335878	-50.0	0.7633587786259541	57.0	1.4351145038167938	-94.0	0.03614457831325302	1282.0	9.216867469879519	2044.0	-0.26506024096385544	2069.0	-0.42	462.0	-0.02090909090909091	-23.0	-0.22448979591836737	220.0	1.5228926426164063E12	1.52289264263E12	2300.78125	9856.0	0.0	0.0	
-0.7480916030534351	-59.0	0.9007633587786259	49.0	1.3893129770992365	-91.0	0.04819277108433735	1283.0	9.204819277108435	2043.0	-0.27710843373493976	2070.0	-0.41363636363636364	455.0	-0.026363636363636363	-29.0	-0.22551020408163266	221.0	1.5228926426203125E12	1.522892642631E12	2304.6875	9984.0	0.0	0.0	
-1.0687022900763359	-45.0	0.6870229007633587	70.0	1.3435114503816794	-88.0	0.07228915662650603	1284.0	9.19277108433735	2041.0	-0.22891566265060243	2066.0	-0.41363636363636364	455.0	-0.019090909090909092	-21.0	-0.22551020408163266	221.0	1.5228926426242188E12	1.522892642633E12	2308.59375	10112.0	0.0	0.0	
-1.114503816793893	-52.0	0.7938931297709924	73.0	1.450381679389313	-95.0	0.08433734939759037	1285.0	9.180722891566266	2040.0	-0.24096385542168675	2067.0	-0.4209090909090909	463.0	-0.019090909090909092	-21.0	-0.21734693877551023	213.0	1.522892642628125E12	1.52289264264E12	2312.5	10240.0	0.0	0.0	
-1.3587786259541985	-50.0	0.7633587786259541	89.0	1.618320610687023	-106.0	0.0963855421686747	1284.0	9.19277108433735	2039.0	-0.1927710843373494	2063.0	-0.41363636363636364	455.0	-0.008181818181818182	-9.0	-0.22755102040816327	223.0	1.5228926426320313E12	1.522892642641E12	2316.40625	10368.0	0.0	0.0	
-1.2061068702290076	-67.0	1.0229007633587786	79.0	1.1908396946564885	-78.0	0.060240963855421686	1286.0	9.168674698795181	2042.0	-0.18072289156626506	2062.0	-0.41909090909090907	461.0	-0.025454545454545455	-28.0	-0.22346938775510206	219.0	1.5228926426359375E12	1.522892642642E12	2320.3125	10496.0	0.0	0.0	
-1.1603053435114503	-40.0	0.6106870229007634	76.0	1.297709923664122	-85.0	0.03614457831325302	1284.0	9.19277108433735	2044.0	-0.1566265060240964	2060.0	-0.4209090909090909	463.0	-0.019090909090909092	-21.0	-0.21938775510204084	215.0	1.5228926426398438E12	1.522892642655E12	2324.21875	10624.0	0.0	0.0	
-1.3587786259541985	-54.0	0.8244274809160305	89.0	1.297709923664122	-85.0	0.024096385542168676	1284.0	9.19277108433735	2045.0	-0.10843373493975904	2056.0	-0.41454545454545455	456.0	-0.01090909090909091	-12.0	-0.22244897959183677	218.0	1.52289264264375E12	1.522892642656E12	2328.125	10752.0	0.0	0.0	
-1.0687022900763359	-34.0	0.5190839694656488	70.0	1.2519083969465647	-82.0	-0.04819277108433735	1284.0	9.19277108433735	2051.0	-0.10843373493975904	2056.0	-0.41818181818181815	460.0	-0.02090909090909091	-23.0	-0.22244897959183677	218.0	1.5228926426476563E12	1.522892642657E12	2332.03125	10880.0	0.0	0.0	
-1.1908396946564885	-36.0	0.549618320610687	78.0	1.2366412213740459	-81.0	-0.024096385542168676	1283.0	9.204819277108435	2049.0	-0.07228915662650603	2053.0	-0.41818181818181815	460.0	-0.02090909090909091	-23.0	-0.22244897959183677	218.0	1.5228926426515625E12	1.52289264266E12	2335.9375	11008.0	0.0	0.0	
-1.3587786259541985	-35.0	0.5343511450381679	89.0	1.4351145038167938	-94.0	-0.024096385542168676	1285.0	9.180722891566266	2049.0	-0.04819277108433735	2051.0	-0.41363636363636364	455.0	-0.02727272727272727	-30.0	-0.22142857142857145	217.0	1.5228926426554688E12	1.522892642661E12	2339.84375	11136.0	0.0	0.0	
-1.3435114503816794	-31.0	0.47328244274809156	88.0	1.4351145038167938	-94.0	-0.04819277108433735	1285.0	9.180722891566266	2051.0	-0.03614457831325302	2050.0	-0.41909090909090907	461.0	-0.02090909090909091	-23.0	-0.22653061224489798	222.0	1.522892642659375E12	1.522892642662E12	2343.75	11264.0	0.0	0.0	
-1.282442748091603	-54.0	0.8244274809160305	84.0	1.3893129770992365	-91.0	-0.060240963855421686	1285.0	9.180722891566266	2052.0	-0.03614457831325302	2050.0	-0.41454545454545455	456.0	-0.017272727272727273	-19.0	-0.22448979591836737	220.0	1.5228926426632813E12	1.522892642698E12	2347.65625	11392.0	0.0	0.0	
-1.6030534351145038	-35.0	0.5343511450381679	105.0	1.5419847328244274	-101.0	-0.04819277108433735	1286.0	9.168674698795181	2051.0	-0.024096385542168676	2049.0	-0.4090909090909091	450.0	0.0018181818181818182	2.0	-0.22142857142857145	217.0	1.5228926426671875E12	1.522892642699E12	2351.5625	11520.0	0.0	0.0	
-1.2671755725190839	-29.0	0.4427480916030534	83.0	1.5877862595419847	-104.0	0.0	1287.0	9.156626506024097	2047.0	-0.012048192771084338	2048.0	-0.41545454545454547	457.0	-0.02	-22.0	-0.22551020408163266	221.0	1.5228926426710938E12	1.5228926427E12	2355.46875	11648.0	0.0	0.0	
-1.3587786259541985	-27.0	0.41221374045801523	89.0	1.6335877862595418	-107.0	0.060240963855421686	1286.0	9.168674698795181	2042.0	0.0	2047.0	-0.4127272727272727	454.0	-0.014545454545454545	-16.0	-0.22244897959183677	218.0	1.522892642675E12	1.522892642701E12	2359.375	11776.0	0.0	0.0	
-1.4045801526717556	-25.0	0.38167938931297707	92.0	1.648854961832061	-108.0	0.10843373493975904	1286.0	9.168674698795181	2038.0	-0.012048192771084338	2048.0	-0.4127272727272727	454.0	-0.014545454545454545	-16.0	-0.22244897959183677	218.0	1.5228926426789063E12	1.522892642702E12	2363.28125	11904.0	0.0	0.0	
-1.114503816793893	-17.0	0.2595419847328244	73.0	1.450381679389313	-95.0	0.0963855421686747	1285.0	9.180722891566266	2039.0	-0.03614457831325302	2050.0	-0.42	462.0	-0.015454545454545455	-17.0	-0.21836734693877552	214.0	1.5228926426828125E12	1.522892642703E12	2367.1875	12032.0	0.0	0.0	
-1.3435114503816794	-17.0	0.2595419847328244	88.0	1.3282442748091603	-87.0	0.10843373493975904	1285.0	9.180722891566266	2038.0	-0.08433734939759037	2054.0	-0.41545454545454547	457.0	-0.02909090909090909	-32.0	-0.22755102040816327	223.0	1.5228926426867188E12	1.522892642704E12	2371.09375	12160.0	0.0	0.0	
-1.2366412213740459	-24.0	0.366412213740458	81.0	1.5725190839694656	-103.0	0.16867469879518074	1284.0	9.19277108433735	2033.0	-0.12048192771084337	2057.0	-0.41545454545454547	457.0	-0.00909090909090909	-10.0	-0.22244897959183677	218.0	1.522892642690625E12	1.522892642705E12	2375.0	12288.0	0.0	0.0	
-1.4045801526717556	-28.0	0.42748091603053434	92.0	1.4351145038167938	-94.0	0.22891566265060243	1283.0	9.204819277108435	2028.0	-0.1566265060240964	2060.0	-0.4172727272727273	459.0	-0.019090909090909092	-21.0	-0.22040816326530616	216.0	1.5228926426945313E12	1.522892642706E12	2378.90625	12416.0	0.0	0.0	
-1.3587786259541985	-34.0	0.5190839694656488	89.0	1.4045801526717556	-92.0	0.22891566265060243	1284.0	9.19277108433735	2028.0	-0.18072289156626506	2062.0	-0.41363636363636364	455.0	-0.02	-22.0	-0.22448979591836737	220.0	1.5228926426984375E12	1.522892642711E12	2382.8125	12544.0	0.0	0.0	
-1.3893129770992365	-57.0	0.8702290076335878	91.0	1.2366412213740459	-81.0	0.18072289156626506	1283.0	9.204819277108435	2032.0	-0.21686746987951808	2065.0	-0.41545454545454547	457.0	-0.007272727272727273	-8.0	-0.22346938775510206	219.0	1.5228926427023438E12	1.522892642712E12	2386.71875	12672.0	0.0	0.0	
-1.4809160305343512	-63.0	0.9618320610687022	97.0	1.4961832061068703	-98.0	0.16867469879518074	1282.0	9.216867469879519	2033.0	-0.24096385542168675	2067.0	-0.41545454545454547	457.0	-0.007272727272727273	-8.0	-0.22346938775510206	219.0	1.52289264270625E12	1.522892642713E12	2390.625	12800.0	0.0	0.0	
-1.7709923664122136	-58.0	0.8854961832061068	116.0	1.465648854961832	-96.0	0.1566265060240964	1283.0	9.204819277108435	2034.0	-0.2530120481927711	2068.0	-0.4209090909090909	463.0	-0.02	-22.0	-0.22244897959183677	218.0	1.5228926427101563E12	1.522892642724E12	2394.53125	12928.0	0.0	0.0	
-1.4809160305343512	-67.0	1.0229007633587786	97.0	1.4198473282442747	-93.0	0.18072289156626506	1282.0	9.216867469879519	2032.0	-0.21686746987951808	2065.0	-0.41909090909090907	461.0	-0.023636363636363636	-26.0	-0.21836734693877552	214.0	1.5228926427140625E12	1.522892642725E12	2398.4375	13056.0	0.0	0.0	
-1.5877862595419847	-65.0	0.9923664122137404	104.0	1.4045801526717556	-92.0	0.18072289156626506	1284.0	9.19277108433735	2032.0	-0.1927710843373494	2063.0	-0.41545454545454547	457.0	-0.015454545454545455	-17.0	-0.22346938775510206	219.0	1.5228926427179688E12	1.522892642726E12	2402.34375	13184.0	0.0	0.0	
-1.5419847328244274	-74.0	1.129770992366412	101.0	1.2519083969465647	-82.0	0.18072289156626506	1284.0	9.19277108433735	2032.0	-0.18072289156626506	2062.0	-0.4209090909090909	463.0	-0.019090909090909092	-21.0	-0.21938775510204084	215.0	1.522892642721875E12	1.522892642734E12	2406.25	13312.0	0.0	0.0	
-1.7251908396946565	-61.0	0.9312977099236641	113.0	0.9618320610687022	-63.0	0.21686746987951808	1283.0	9.204819277108435	2029.0	-0.1927710843373494	2063.0	-0.4172727272727273	459.0	-0.025454545454545455	-28.0	-0.22448979591836737	220.0	1.5228926427257813E12	1.522892642735E12	2410.15625	13440.0	0.0	0.0	
-1.5877862595419847	-62.0	0.9465648854961831	104.0	1.083969465648855	-71.0	0.18072289156626506	1284.0	9.19277108433735	2032.0	-0.18072289156626506	2062.0	-0.4163636363636364	458.0	-0.01090909090909091	-12.0	-0.22346938775510206	219.0	1.5228926427296875E12	1.522892642736E12	2414.0625	13568.0	0.0	0.0	
-1.7862595419847327	-69.0	1.0534351145038168	117.0	0.9465648854961831	-62.0	0.1566265060240964	1283.0	9.204819277108435	2034.0	-0.16867469879518074	2061.0	-0.4163636363636364	458.0	-0.01090909090909091	-12.0	-0.22346938775510206	219.0	1.5228926427335938E12	1.522892642743E12	2417.96875	13696.0	0.0	0.0	
-1.66412213740458	-69.0	1.0534351145038168	109.0	1.114503816793893	-73.0	0.0963855421686747	1284.0	9.19277108433735	2039.0	-0.1566265060240964	2060.0	-0.4209090909090909	463.0	-0.022727272727272728	-25.0	-0.22040816326530616	216.0	1.5228926427375E12	1.522892642744E12	2421.875	13824.0	0.0	0.0	
-1.8778625954198473	-68.0	1.0381679389312977	123.0	0.9618320610687022	-63.0	0.04819277108433735	1284.0	9.19277108433735	2043.0	-0.14457831325301207	2059.0	-0.4218181818181818	464.0	-0.024545454545454544	-27.0	-0.22653061224489798	222.0	1.5228926427414063E12	1.522892642745E12	2425.78125	13952.0	0.0	0.0	
-1.8015267175572518	-78.0	1.1908396946564885	118.0	1.2519083969465647	-82.0	0.012048192771084338	1284.0	9.19277108433735	2046.0	-0.13253012048192772	2058.0	-0.41454545454545455	456.0	-0.011818181818181818	-13.0	-0.22040816326530616	216.0	1.5228926427453125E12	1.522892642757E12	2429.6875	14080.0	0.0	0.0	
-1.984732824427481	-71.0	1.083969465648855	130.0	1.099236641221374	-72.0	0.012048192771084338	1283.0	9.204819277108435	2046.0	-0.08433734939759037	2054.0	-0.41909090909090907	461.0	-0.019090909090909092	-21.0	-0.21938775510204084	215.0	1.5228926427492188E12	1.522892642758E12	2433.59375	14208.0	0.0	0.0	
-1.9389312977099236	-78.0	1.1908396946564885	127.0	1.1755725190839694	-77.0	0.03614457831325302	1284.0	9.19277108433735	2044.0	-0.03614457831325302	2050.0	-0.4209090909090909	463.0	-0.026363636363636363	-29.0	-0.22551020408163266	221.0	1.522892642753125E12	1.522892642759E12	2437.5	14336.0	0.0	0.0	
-2.0	-77.0	1.1755725190839694	131.0	1.099236641221374	-72.0	0.012048192771084338	1285.0	9.180722891566266	2046.0	-0.03614457831325302	2050.0	-0.4163636363636364	458.0	-0.012727272727272728	-14.0	-0.22346938775510206	219.0	1.5228926427570313E12	1.522892642767E12	2441.40625	14464.0	0.0	0.0	
-1.984732824427481	-94.0	1.4351145038167938	130.0	1.2061068702290076	-79.0	-0.024096385542168676	1284.0	9.19277108433735	2049.0	0.012048192771084338	2046.0	-0.4163636363636364	458.0	-0.012727272727272728	-14.0	-0.22346938775510206	219.0	1.5228926427609375E12	1.522892642769E12	2445.3125	14592.0	0.0	0.0	
-1.8625954198473282	-87.0	1.3282442748091603	122.0	1.1755725190839694	-77.0	-0.08433734939759037	1286.0	9.168674698795181	2054.0	0.03614457831325302	2044.0	-0.42	462.0	-0.023636363636363636	-26.0	-0.22040816326530616	216.0	1.5228926427648438E12	1.522892642779E12	2449.21875	14720.0	0.0	0.0	
-1.9541984732824427	-79.0	1.2061068702290076	128.0	1.2366412213740459	-81.0	-0.10843373493975904	1285.0	9.180722891566266	2056.0	0.060240963855421686	2042.0	-0.4218181818181818	464.0	-0.02727272727272727	-30.0	-0.22653061224489798	222.0	1.52289264276875E12	1.52289264278E12	2453.125	14848.0	0.0	0.0	
-1.984732824427481	-56.0	0.8549618320610687	130.0	1.3893129770992365	-91.0	-0.0963855421686747	1285.0	9.180722891566266	2055.0	0.0963855421686747	2039.0	-0.4172727272727273	459.0	-0.02	-22.0	-0.22551020408163266	221.0	1.5228926427726563E12	1.522892642781E12	2457.03125	14976.0	0.0	0.0	
-1.8625954198473282	-49.0	0.7480916030534351	122.0	1.3282442748091603	-87.0	-0.060240963855421686	1286.0	9.168674698795181	2052.0	0.14457831325301207	2035.0	-0.41818181818181815	460.0	-0.025454545454545455	-28.0	-0.22142857142857145	217.0	1.5228926427765625E12	1.522892642781E12	2460.9375	15104.0	0.0	0.0	
-1.9389312977099236	-46.0	0.7022900763358778	127.0	1.2061068702290076	-79.0	-0.024096385542168676	1285.0	9.180722891566266	2049.0	0.14457831325301207	2035.0	-0.41818181818181815	460.0	-0.008181818181818182	-9.0	-0.21938775510204084	215.0	1.5228926427804688E12	1.522892642795E12	2464.84375	15232.0	0.0	0.0	
-1.816793893129771	-52.0	0.7938931297709924	119.0	1.1450381679389312	-75.0	-0.03614457831325302	1284.0	9.19277108433735	2050.0	0.14457831325301207	2035.0	-0.41818181818181815	460.0	-0.015454545454545455	-17.0	-0.21938775510204084	215.0	1.522892642784375E12	1.522892642796E12	2468.75	15360.0	0.0	0.0	
-1.7404580152671756	-42.0	0.6412213740458015	114.0	1.1603053435114503	-76.0	-0.060240963855421686	1285.0	9.180722891566266	2052.0	0.14457831325301207	2035.0	-0.4163636363636364	458.0	-0.015454545454545455	-17.0	-0.2295918367346939	225.0	1.5228926427882813E12	1.522892642797E12	2472.65625	15488.0	0.0	0.0	
-1.6793893129770991	-54.0	0.8244274809160305	110.0	1.1908396946564885	-78.0	-0.10843373493975904	1285.0	9.180722891566266	2056.0	0.12048192771084337	2037.0	-0.41909090909090907	461.0	-0.02727272727272727	-30.0	-0.22244897959183677	218.0	1.5228926427921875E12	1.522892642804E12	2476.5625	15616.0	0.0	0.0	
-1.5877862595419847	-53.0	0.8091603053435115	104.0	1.3893129770992365	-91.0	-0.1566265060240964	1285.0	9.180722891566266	2060.0	0.12048192771084337	2037.0	-0.41818181818181815	460.0	-0.02909090909090909	-32.0	-0.22244897959183677	218.0	1.5228926427960938E12	1.522892642804E12	2480.46875	15744.0	0.0	0.0	
-1.450381679389313	-51.0	0.7786259541984732	95.0	1.450381679389313	-95.0	-0.13253012048192772	1284.0	9.19277108433735	2058.0	0.12048192771084337	2037.0	-0.4163636363636364	458.0	-0.014545454545454545	-16.0	-0.22551020408163266	221.0	1.5228926428E12	1.522892642805E12	2484.375	15872.0	0.0	0.0	
-1.83206106870229	-40.0	0.6106870229007634	120.0	1.5572519083969465	-102.0	-0.08433734939759037	1285.0	9.180722891566266	2054.0	0.14457831325301207	2035.0	-0.41909090909090907	461.0	-0.023636363636363636	-26.0	-0.22142857142857145	217.0	1.5228926428039063E12	1.522892642806E12	2488.28125	16000.0	0.0	0.0	
-1.6793893129770991	-32.0	0.48854961832061067	110.0	1.6030534351145038	-105.0	-0.03614457831325302	1285.0	9.180722891566266	2050.0	0.1566265060240964	2034.0	-0.41818181818181815	460.0	-0.017272727272727273	-19.0	-0.22244897959183677	218.0	1.5228926428078125E12	1.522892642833E12	2492.1875	16128.0	0.0	0.0	
-1.465648854961832	-45.0	0.6870229007633587	96.0	1.5572519083969465	-102.0	-0.012048192771084338	1285.0	9.180722891566266	2048.0	0.1566265060240964	2034.0	-0.41818181818181815	460.0	-0.017272727272727273	-19.0	-0.22244897959183677	218.0	1.5228926428117188E12	1.522892642833E12	2496.09375	16256.0	0.0	0.0	
-1.4809160305343512	-42.0	0.6412213740458015	97.0	1.5572519083969465	-102.0	0.0	1288.0	9.144578313253012	2047.0	0.13253012048192772	2036.0	-0.41818181818181815	460.0	-0.016363636363636365	-18.0	-0.22551020408163266	221.0	1.522892642815625E12	1.522892642834E12	2500.0	16384.0	0.0	0.0	
-1.4198473282442747	-29.0	0.4427480916030534	93.0	1.5572519083969465	-102.0	0.03614457831325302	1286.0	9.168674698795181	2044.0	0.0963855421686747	2039.0	-0.41454545454545455	456.0	-0.00909090909090909	-10.0	-0.22755102040816327	223.0	1.5228926428195313E12	1.522892642835E12	2503.90625	16512.0	0.0	0.0	
-1.3740458015267174	-30.0	0.4580152671755725	90.0	1.4351145038167938	-94.0	0.04819277108433735	1285.0	9.180722891566266	2043.0	0.07228915662650603	2041.0	-0.4163636363636364	458.0	-0.026363636363636363	-29.0	-0.22346938775510206	219.0	1.5228926428234375E12	1.522892642836E12	2507.8125	16640.0	0.0	0.0	
-1.4961832061068703	-31.0	0.47328244274809156	98.0	1.5267175572519083	-100.0	0.08433734939759037	1285.0	9.180722891566266	2040.0	0.03614457831325302	2044.0	-0.41818181818181815	460.0	-0.017272727272727273	-19.0	-0.22653061224489798	222.0	1.5228926428273438E12	1.522892642837E12	2511.71875	16768.0	0.0	0.0	
-1.4809160305343512	-30.0	0.4580152671755725	97.0	1.4961832061068703	-98.0	0.07228915662650603	1285.0	9.180722891566266	2041.0	0.012048192771084338	2046.0	-0.4209090909090909	463.0	-0.02727272727272727	-30.0	-0.22653061224489798	222.0	1.52289264283125E12	1.52289264284E12	2515.625	16896.0	0.0	0.0	
-1.4351145038167938	-30.0	0.4580152671755725	94.0	1.5267175572519083	-100.0	0.04819277108433735	1284.0	9.19277108433735	2043.0	-0.012048192771084338	2048.0	-0.41363636363636364	455.0	-0.02090909090909091	-23.0	-0.22653061224489798	222.0	1.5228926428351563E12	1.52289264284E12	2519.53125	17024.0	0.0	0.0	
-1.6030534351145038	-41.0	0.6259541984732824	105.0	1.66412213740458	-109.0	0.024096385542168676	1282.0	9.216867469879519	2045.0	-0.012048192771084338	2048.0	-0.41363636363636364	455.0	-0.02090909090909091	-23.0	-0.22653061224489798	222.0	1.5228926428390625E12	1.522892642841E12	2523.4375	17152.0	0.0	0.0	
-1.5572519083969465	-53.0	0.8091603053435115	102.0	1.6030534351145038	-105.0	0.012048192771084338	1284.0	9.19277108433735	2046.0	-0.024096385542168676	2049.0	-0.41818181818181815	460.0	-0.017272727272727273	-19.0	-0.22142857142857145	217.0	1.5228926428429688E12	1.522892642855E12	2527.34375	17280.0	0.0	0.0	
-1.450381679389313	-50.0	0.7633587786259541	95.0	1.8778625954198473	-123.0	0.012048192771084338	1284.0	9.19277108433735	2046.0	0.0	2047.0	-0.4172727272727273	459.0	-0.008181818181818182	-9.0	-0.213265306122449	209.0	1.522892642846875E12	1.522892642856E12	2531.25	17408.0	0.0	0.0	
-1.4351145038167938	-47.0	0.7175572519083969	94.0	1.6335877862595418	-107.0	0.07228915662650603	1284.0	9.19277108433735	2041.0	0.012048192771084338	2046.0	-0.41818181818181815	460.0	-0.02	-22.0	-0.22346938775510206	219.0	1.5228926428507813E12	1.522892642857E12	2535.15625	17536.0	0.0	0.0	
-1.4351145038167938	-30.0	0.4580152671755725	94.0	1.7099236641221374	-112.0	0.0963855421686747	1285.0	9.180722891566266	2039.0	0.012048192771084338	2046.0	-0.41545454545454547	457.0	-0.01	-11.0	-0.22244897959183677	218.0	1.5228926428546875E12	1.522892642869E12	2539.0625	17664.0	0.0	0.0	
-1.3740458015267174	-42.0	0.6412213740458015	90.0	1.6335877862595418	-107.0	0.13253012048192772	1285.0	9.180722891566266	2036.0	0.012048192771084338	2046.0	-0.42	462.0	-0.025454545454545455	-28.0	-0.22244897959183677	218.0	1.5228926428585938E12	1.522892642871E12	2542.96875	17792.0	0.0	0.0	
-1.3740458015267174	-56.0	0.8549618320610687	90.0	1.3282442748091603	-87.0	0.12048192771084337	1284.0	9.19277108433735	2037.0	-0.012048192771084338	2048.0	-0.41545454545454547	457.0	-0.02	-22.0	-0.22346938775510206	219.0	1.5228926428625E12	1.522892642872E12	2546.875	17920.0	0.0	0.0	
-1.6335877862595418	-49.0	0.7480916030534351	107.0	1.3893129770992365	-91.0	0.08433734939759037	1284.0	9.19277108433735	2040.0	0.012048192771084338	2046.0	-0.41545454545454547	457.0	-0.02	-22.0	-0.22346938775510206	219.0	1.5228926428664063E12	1.52289264288E12	2550.78125	18048.0	0.0	0.0	
-1.4351145038167938	-47.0	0.7175572519083969	94.0	1.5877862595419847	-104.0	0.04819277108433735	1283.0	9.204819277108435	2043.0	0.024096385542168676	2045.0	-0.41818181818181815	460.0	-0.02	-22.0	-0.22551020408163266	221.0	1.5228926428703125E12	1.522892642881E12	2554.6875	18176.0	0.0	0.0	
-1.648854961832061	-40.0	0.6106870229007634	108.0	1.4961832061068703	-98.0	0.012048192771084338	1285.0	9.180722891566266	2046.0	0.03614457831325302	2044.0	-0.41909090909090907	461.0	-0.026363636363636363	-29.0	-0.22346938775510206	219.0	1.5228926428742188E12	1.522892642882E12	2558.59375	18304.0	0.0	0.0	
-1.6335877862595418	-33.0	0.5038167938931297	107.0	1.5114503816793892	-99.0	0.04819277108433735	1284.0	9.19277108433735	2043.0	0.060240963855421686	2042.0	-0.4118181818181818	453.0	-0.015454545454545455	-17.0	-0.22448979591836737	220.0	1.522892642878125E12	1.522892642894E12	2562.5	18432.0	0.0	0.0	
-1.4961832061068703	-36.0	0.549618320610687	98.0	1.5572519083969465	-102.0	0.14457831325301207	1283.0	9.204819277108435	2035.0	0.08433734939759037	2040.0	-0.4072727272727273	448.0	-0.019090909090909092	-21.0	-0.22653061224489798	222.0	1.5228926428820313E12	1.522892642895E12	2566.40625	18560.0	0.0	0.0	
-1.5114503816793892	-37.0	0.564885496183206	99.0	1.4351145038167938	-94.0	0.1927710843373494	1284.0	9.19277108433735	2031.0	0.07228915662650603	2041.0	-0.4118181818181818	453.0	-0.022727272727272728	-25.0	-0.22551020408163266	221.0	1.5228926428859375E12	1.522892642896E12	2570.3125	18688.0	0.0	0.0	
-1.6335877862595418	-70.0	1.0687022900763359	107.0	1.3435114503816794	-88.0	0.1927710843373494	1285.0	9.180722891566266	2031.0	0.060240963855421686	2042.0	-0.4163636363636364	458.0	-0.02	-22.0	-0.22448979591836737	220.0	1.5228926428898438E12	1.522892642899E12	2574.21875	18816.0	0.0	0.0	
-1.4045801526717556	-64.0	0.9770992366412213	92.0	1.3435114503816794	-88.0	0.1566265060240964	1284.0	9.19277108433735	2034.0	0.07228915662650603	2041.0	-0.4163636363636364	458.0	-0.02	-22.0	-0.22448979591836737	220.0	1.52289264289375E12	1.5228926429E12	2578.125	18944.0	0.0	0.0	
-1.4809160305343512	-69.0	1.0534351145038168	97.0	1.3435114503816794	-88.0	0.10843373493975904	1284.0	9.19277108433735	2038.0	0.060240963855421686	2042.0	-0.4172727272727273	459.0	-0.011818181818181818	-13.0	-0.22346938775510206	219.0	1.5228926428976563E12	1.522892642901E12	2582.03125	19072.0	0.0	0.0	
-1.3435114503816794	-58.0	0.8854961832061068	88.0	1.5114503816793892	-99.0	0.10843373493975904	1283.0	9.204819277108435	2038.0	0.08433734939759037	2040.0	-0.4209090909090909	463.0	-0.026363636363636363	-29.0	-0.22244897959183677	218.0	1.5228926429015625E12	1.522892642916E12	2585.9375	19200.0	0.0	0.0	
-1.3282442748091603	-45.0	0.6870229007633587	87.0	1.5572519083969465	-102.0	0.08433734939759037	1286.0	9.168674698795181	2040.0	0.10843373493975904	2038.0	-0.4118181818181818	453.0	-0.01818181818181818	-20.0	-0.22653061224489798	222.0	1.5228926429054688E12	1.522892642917E12	2589.84375	19328.0	0.0	0.0	
-1.4809160305343512	-46.0	0.7022900763358778	97.0	1.5419847328244274	-101.0	0.0963855421686747	1284.0	9.19277108433735	2039.0	0.12048192771084337	2037.0	-0.42	462.0	-0.01090909090909091	-12.0	-0.22142857142857145	217.0	1.522892642909375E12	1.522892642919E12	2593.75	19456.0	0.0	0.0	
-1.3740458015267174	-36.0	0.549618320610687	90.0	1.6030534351145038	-105.0	0.12048192771084337	1286.0	9.168674698795181	2037.0	0.12048192771084337	2037.0	-0.41909090909090907	461.0	-0.02909090909090909	-32.0	-0.22244897959183677	218.0	1.5228926429132813E12	1.522892642927E12	2597.65625	19584.0	0.0	0.0	
-1.3740458015267174	-32.0	0.48854961832061067	90.0	1.5267175572519083	-100.0	0.16867469879518074	1286.0	9.168674698795181	2033.0	0.08433734939759037	2040.0	-0.41909090909090907	461.0	-0.02181818181818182	-24.0	-0.22244897959183677	218.0	1.5228926429171875E12	1.522892642928E12	2601.5625	19712.0	0.0	0.0	
-1.3740458015267174	-25.0	0.38167938931297707	90.0	1.450381679389313	-95.0	0.16867469879518074	1285.0	9.180722891566266	2033.0	0.060240963855421686	2042.0	-0.41363636363636364	455.0	-0.02181818181818182	-24.0	-0.2285714285714286	224.0	1.5228926429210938E12	1.522892642929E12	2605.46875	19840.0	0.0	0.0	
-1.2366412213740459	-42.0	0.6412213740458015	81.0	1.282442748091603	-84.0	0.21686746987951808	1285.0	9.180722891566266	2029.0	0.012048192771084338	2046.0	-0.42	462.0	-0.011818181818181818	-13.0	-0.21938775510204084	215.0	1.522892642925E12	1.522892642934E12	2609.375	19968.0	0.0	0.0	
-1.282442748091603	-38.0	0.5801526717557252	84.0	1.2366412213740459	-81.0	0.18072289156626506	1285.0	9.180722891566266	2032.0	-0.012048192771084338	2048.0	-0.41363636363636364	455.0	-0.023636363636363636	-26.0	-0.22244897959183677	218.0	1.5228926429289063E12	1.522892642935E12	2613.28125	20096.0	0.0	0.0	
-1.450381679389313	-43.0	0.6564885496183206	95.0	1.282442748091603	-84.0	0.14457831325301207	1283.0	9.204819277108435	2035.0	0.0	2047.0	-0.41454545454545455	456.0	-0.02181818181818182	-24.0	-0.22551020408163266	221.0	1.5228926429328125E12	1.522892642936E12	2617.1875	20224.0	0.0	0.0	
-1.3587786259541985	-49.0	0.7480916030534351	89.0	1.297709923664122	-85.0	0.10843373493975904	1284.0	9.19277108433735	2038.0	0.0	2047.0	-0.42	462.0	-0.016363636363636365	-18.0	-0.22040816326530616	216.0	1.5228926429367188E12	1.522892642949E12	2621.09375	20352.0	0.0	0.0	
-1.2061068702290076	-58.0	0.8854961832061068	79.0	1.2671755725190839	-83.0	0.10843373493975904	1283.0	9.204819277108435	2038.0	0.012048192771084338	2046.0	-0.4127272727272727	454.0	-0.006363636363636364	-7.0	-0.22653061224489798	222.0	1.522892642940625E12	1.52289264295E12	2625.0	20480.0	0.0	0.0	
-1.3282442748091603	-58.0	0.8854961832061068	87.0	1.2671755725190839	-83.0	0.12048192771084337	1283.0	9.204819277108435	2037.0	0.04819277108433735	2043.0	-0.4127272727272727	454.0	-0.006363636363636364	-7.0	-0.22653061224489798	222.0	1.5228926429445313E12	1.522892642991E12	2628.90625	20608.0	0.0	0.0	
-1.4809160305343512	-64.0	0.9770992366412213	97.0	1.3282442748091603	-87.0	0.14457831325301207	1285.0	9.180722891566266	2035.0	0.04819277108433735	2043.0	-0.41363636363636364	455.0	-0.022727272727272728	-25.0	-0.22653061224489798	222.0	1.5228926429484375E12	1.522892642994E12	2632.8125	20736.0	0.0	0.0	
-1.3129770992366412	-54.0	0.8244274809160305	86.0	1.1755725190839694	-77.0	0.14457831325301207	1285.0	9.180722891566266	2035.0	0.07228915662650603	2041.0	-0.41909090909090907	461.0	-0.015454545454545455	-17.0	-0.22448979591836737	220.0	1.5228926429523438E12	1.522892642995E12	2636.71875	20864.0	0.0	0.0	
-1.4809160305343512	-68.0	1.0381679389312977	97.0	1.3129770992366412	-86.0	0.12048192771084337	1285.0	9.180722891566266	2037.0	0.08433734939759037	2040.0	-0.42	462.0	-0.025454545454545455	-28.0	-0.22448979591836737	220.0	1.52289264295625E12	1.522892642995E12	2640.625	20992.0	0.0	0.0	
-1.2671755725190839	-57.0	0.8702290076335878	83.0	1.3282442748091603	-87.0	0.12048192771084337	1285.0	9.180722891566266	2037.0	0.08433734939759037	2040.0	-0.41545454545454547	457.0	-0.017272727272727273	-19.0	-0.22346938775510206	219.0	1.5228926429601563E12	1.522892642997E12	2644.53125	21120.0	0.0	0.0	
-1.3893129770992365	-64.0	0.9770992366412213	91.0	1.2213740458015268	-80.0	0.060240963855421686	1285.0	9.180722891566266	2042.0	0.10843373493975904	2038.0	-0.42272727272727273	465.0	-0.014545454545454545	-16.0	-0.22346938775510206	219.0	1.5228926429640625E12	1.522892642998E12	2648.4375	21248.0	0.0	0.0	
-1.4961832061068703	-58.0	0.8854961832061068	98.0	1.1450381679389312	-75.0	0.060240963855421686	1285.0	9.180722891566266	2042.0	0.0963855421686747	2039.0	-0.41545454545454547	457.0	-0.024545454545454544	-27.0	-0.22448979591836737	220.0	1.5228926429679688E12	1.522892642999E12	2652.34375	21376.0	0.0	0.0	
-1.297709923664122	-46.0	0.7022900763358778	85.0	1.1603053435114503	-76.0	0.024096385542168676	1284.0	9.19277108433735	2045.0	0.10843373493975904	2038.0	-0.41545454545454547	457.0	-0.024545454545454544	-27.0	-0.22448979591836737	220.0	1.522892642971875E12	1.522892643E12	2656.25	21504.0	0.0	0.0	
-1.3282442748091603	-60.0	0.916030534351145	87.0	1.282442748091603	-84.0	-0.03614457831325302	1284.0	9.19277108433735	2050.0	0.13253012048192772	2036.0	-0.41363636363636364	455.0	-0.005454545454545455	-6.0	-0.22040816326530616	216.0	1.5228926429757813E12	1.522892643001E12	2660.15625	21632.0	0.0	0.0	
